Timestamp,AX,AY,AZ,RX,RY,RZ,Jump
216605.08716016667,-0.007578164339065552,0.006847664713859558,-2.390146255493164e-05,-0.013899050652980804,-0.006511064246296883,-0.0009488568175584078,false
216605.0971191667,-0.00876307487487793,0.0038246214389801025,-0.0007928013801574707,-0.021428072825074196,-0.015565278939902782,-0.005591811612248421,false
216605.10707716667,-0.010415792465209961,0.0027778446674346924,0.00018256902694702148,-0.020502425730228424,-0.018852485343813896,-0.004341773688793182,false
216605.1170361667,-0.008485376834869385,0.006611049175262451,-0.0014868378639221191,-0.017908772453665733,-0.01423962414264679,-0.010478495620191097,false
216605.12699416667,-0.00765720009803772,0.007178843021392822,-0.005076229572296143,-0.022119496017694473,-0.007127119693905115,-0.00924804899841547,false
216605.1369531667,-0.009684532880783081,0.00890474021434784,-0.009485065937042236,-0.011139016598463058,0.0052938638255000114,-0.00548899732530117,false
216605.14691216667,-0.008212506771087646,0.009581416845321655,-0.011150002479553223,-0.00016865739598870277,0.003117794869467616,0.0026152683421969414,false
216605.15687016668,-0.008546322584152222,0.006529942154884338,-0.010066032409667969,-0.00505848741158843,0.020797722041606903,-0.05626323074102402,false
216605.16682916667,-0.009289175271987915,0.009547799825668335,-0.005185186862945557,-0.0740431472659111,0.2742542326450348,-0.4464293122291565,false
216605.17678716668,-0.0068309009075164795,0.011390045285224915,-0.002327859401702881,-0.14204564690589905,0.4140179753303528,-0.729859471321106,false
216605.18674616667,-0.011850088834762573,0.007971987128257751,-0.005371809005737305,-0.10884713381528854,0.050400152802467346,-0.19989044964313507,false
216605.19670416668,0.024881422519683838,-0.0011925548315048218,0.0013478398323059082,-0.026831626892089844,-0.03503112122416496,0.021517569199204445,false
216605.20666316667,-0.014273464679718018,0.004859820008277893,-0.0003657341003417969,0.00172891141846776,0.0020832233130931854,0.008355762809515,false
216605.21662116668,-0.01560935378074646,0.00691772997379303,0.0007714629173278809,0.001725449226796627,-0.004910770338028669,0.009519563987851143,false
216605.22658016667,-0.009689867496490479,0.008182093501091003,0.0015693902969360352,-0.0069154431112110615,0.0003993066493421793,0.0007557659409940243,false
216605.23653916668,-0.007510393857955933,0.013932913541793823,-0.00042504072189331055,-0.025763966143131256,-0.0036942381411790848,-0.010433238931000233,false
216605.2464971667,0.0026117563247680664,0.0041868239641189575,-0.004620075225830078,-0.02859310805797577,-0.0043763406574726105,-0.014896547421813011,false
216605.25645616668,0.0014680027961730957,-0.008670568466186523,-0.005303323268890381,-0.023751482367515564,-0.003889514598995447,-0.015167923644185066,false
216605.2664141667,0.0010758936405181885,-0.006720408797264099,-0.001618027687072754,-0.0265485979616642,-0.00019198190420866013,-0.011626185849308968,false
216605.27637275,-0.0017673969268798828,5.6877732276916504e-05,0.004281520843505859,-0.03118729218840599,-0.002886834554374218,-0.014389215037226677,false
216605.28633075,-0.0046253502368927,0.0023567527532577515,0.009944498538970947,-0.028451427817344666,0.0025446824729442596,-0.01278252899646759,false
216605.29628975003,-0.005022764205932617,0.0019051283597946167,0.011389195919036865,-0.02721971645951271,0.002480766735970974,-0.018227096647024155,false
216605.30624775,-0.0049536824226379395,0.00015713274478912354,0.013728141784667969,-0.03678019717335701,-0.007250690367072821,-0.030512258410453796,false
216605.31620675002,-0.007180929183959961,-0.005593448877334595,0.01789790391921997,-0.05326729640364647,-0.024563634768128395,-0.041357580572366714,false
216605.32616575,-0.005387157201766968,-0.006251215934753418,0.026499688625335693,-0.08751215040683746,-0.056364506483078,-0.05241268128156662,false
216605.33612375002,-0.006373226642608643,-0.007403478026390076,0.035115182399749756,-0.13916683197021484,-0.09019703418016434,-0.06330713629722595,false
216605.34608275,-0.001835256814956665,-0.003852143883705139,0.04483586549758911,-0.1714657098054886,-0.16109338402748108,-0.06822724640369415,false
216605.35604075002,0.004324495792388916,-0.00662800669670105,0.051690101623535156,-0.25591108202934265,-0.24817128479480743,-0.04888363927602768,false
216605.36599975,0.013609737157821655,-0.00822611153125763,0.05868649482727051,-0.35403525829315186,-0.3252221345901489,-0.03720860928297043,false
216605.37595775002,0.030612170696258545,-0.01497243344783783,0.07539832592010498,-0.4596671462059021,-0.41684848070144653,-0.022558296099305153,false
216605.38591675,0.04018017649650574,-0.028056949377059937,0.08931457996368408,-0.6171979904174805,-0.4949427843093872,-0.001901203184388578,false
216605.39587475001,0.04403048753738403,-0.03853447735309601,0.09716546535491943,-0.7955703735351562,-0.6045222878456116,0.028747785836458206,false
216605.40583375,0.047066062688827515,-0.04548268020153046,0.10010004043579102,-0.9714580178260803,-0.736976683139801,0.06462255120277405,false
216605.41579275002,0.06427209079265594,-0.03472605347633362,0.10369718074798584,-1.1672532558441162,-0.8493341207504272,0.14984476566314697,false
216605.42575075,0.0849887877702713,-0.046503618359565735,0.12123006582260132,-1.3791320323944092,-0.9041565656661987,0.2599324584007263,false
216605.43570975002,0.08643345534801483,-0.05961811542510986,0.14173579216003418,-1.6630964279174805,-0.9689505100250244,0.4602980613708496,false
216605.44566775003,0.07917675375938416,-0.07851840555667877,0.1666768193244934,-1.8519465923309326,-0.8995343446731567,0.3904334008693695,false
216605.45562675002,0.07822534441947937,-0.10968761146068573,0.19904887676239014,-1.5749554634094238,-0.8490104675292969,0.17633014917373657,false
216605.46558475003,0.012561231851577759,-0.09970895946025848,0.2147093415260315,-1.3572193384170532,-0.646181583404541,0.0027433496434241533,false
216605.47554375,-0.013861939311027527,-0.05136101692914963,0.23844033479690552,-1.379421353340149,-0.36799976229667664,0.22491729259490967,false
216605.48550175002,-0.023543208837509155,-0.02902400493621826,0.2571752071380615,-1.3219691514968872,-0.05837845802307129,0.5477272868156433,false
216605.49546075,-0.05883663892745972,-0.13004955649375916,0.25409942865371704,-1.6287291049957275,-0.6040756106376648,1.2545216083526611,false
216605.50541875002,-0.06649109721183777,-0.24812166392803192,0.2624041438102722,-2.498309850692749,-1.4717578887939453,1.823699712753296,false
216605.51537775,-0.004970133304595947,-0.31746530532836914,0.34133630990982056,-3.5483601093292236,-2.334751844406128,2.052117109298706,false
216605.52533675003,0.27498865127563477,-0.34988731145858765,0.4803658723831177,-3.9812352657318115,-2.3913793563842773,1.1744742393493652,false
216605.53529475,0.4854980409145355,-0.4054713249206543,0.49411022663116455,-4.261407375335693,-2.3091862201690674,0.9801753163337708,false
216605.54525375002,0.3591708242893219,-0.5388542413711548,0.43013739585876465,-4.019796848297119,-1.257109522819519,1.6386756896972656,false
216605.55521175,0.03963018208742142,-0.5157488584518433,0.40946346521377563,-3.889535903930664,-0.5415945649147034,2.3948328495025635,false
216605.56517075002,-0.2845397889614105,-0.33679014444351196,0.43179231882095337,-3.5769753456115723,-0.3829924762248993,2.9121837615966797,false
216605.57512875,-0.28428927063941956,-0.28561046719551086,0.40390080213546753,-3.8554372787475586,-0.44589555263519287,3.2110214233398438,false
216605.58508775002,-0.05867644399404526,-0.3745374083518982,0.49147164821624756,-4.26694917678833,-0.6445748209953308,3.427109718322754,false
216605.59504575,0.1449946165084839,-0.4365999698638916,0.4739854335784912,-4.943674087524414,-0.7922247052192688,3.5136613845825195,false
216605.60500475002,0.2930160462856293,-0.5587968826293945,0.48977339267730713,-5.611085891723633,-0.8199977278709412,3.6244730949401855,false
216605.61496375,0.34648361802101135,-0.6449307799339294,0.5063894987106323,-6.355996608734131,-0.9096168279647827,3.7329609394073486,false
216605.62492175002,0.3390882909297943,-0.6777894496917725,0.5387089848518372,-6.96806001663208,-1.0559055805206299,3.8661508560180664,false
216605.63488075,0.3492199778556824,-0.697272777557373,0.5585042238235474,-7.40254545211792,-1.209899663925171,4.133521556854248,false
216605.64483875,0.37947458028793335,-0.6903988718986511,0.5645859837532043,-7.828567028045654,-1.3871982097625732,4.368902206420898,false
216605.65479775,0.4242324233055115,-0.6582365036010742,0.5899034738540649,-8.027743339538574,-1.5008779764175415,4.542240142822266,false
216605.66475575,0.4834396243095398,-0.6050839424133301,0.5739355087280273,-8.370768547058105,-1.6922156810760498,4.559586048126221,false
216605.67471475,0.5455844402313232,-0.49728715419769287,0.5559110045433044,-8.669465065002441,-1.9465457201004028,4.4907636642456055,false
216605.68467275,0.6478244662284851,-0.3606988787651062,0.5463824272155762,-8.700262069702148,-2.255016326904297,4.544940948486328,false
216605.69463175003,0.7555669546127319,-0.27973151206970215,0.5287613272666931,-8.991172790527344,-2.47766375541687,4.757824420928955,false
216605.70459075,0.8150156140327454,-0.2696989178657532,0.4786321520805359,-9.229668617248535,-2.7347192764282227,4.88488245010376,false
216605.71454875002,0.8254185914993286,-0.30762219429016113,0.46960997581481934,-9.579524040222168,-2.9465434551239014,4.884682655334473,false
216605.72450775,0.8019628524780273,-0.3893020749092102,0.43902885913848877,-10.032157897949219,-3.1685445308685303,4.821667194366455,false
216605.73446575002,0.788513720035553,-0.4251939654350281,0.41956058144569397,-10.479194641113281,-3.4313032627105713,4.406509876251221,false
216605.74442475,0.7910656929016113,-0.38613057136535645,0.3981918692588806,-10.841325759887695,-3.603848934173584,3.8475184440612793,false
216605.75438275002,0.8081601858139038,-0.23491305112838745,0.42750561237335205,-10.754170417785645,-3.637115716934204,3.1241002082824707,false
216605.76434175,0.8811569213867188,0.0397258996963501,0.488508403301239,-10.199769020080566,-4.069697380065918,3.1997034549713135,false
216605.77429975002,0.9403631687164307,0.3057441711425781,0.5081131458282471,-9.489534378051758,-4.532724380493164,3.388141393661499,false
216605.78425875,1.0322675704956055,0.4677193760871887,0.48101210594177246,-8.907628059387207,-5.025747776031494,3.3070714473724365,false
216605.79421775002,1.0584899187088013,0.5241211652755737,0.3680473566055298,-8.631505012512207,-5.365564823150635,3.0982353687286377,false
216605.80417575,0.926400363445282,0.5146994590759277,0.2103835642337799,-8.671075820922852,-5.6891679763793945,2.834315538406372,false
216605.81413475002,0.7626473307609558,0.4851193428039551,0.08670726418495178,-8.304882049560547,-5.809879302978516,2.697096586227417,false
216605.82409275,0.6241753697395325,0.48489296436309814,-0.041149914264678955,-7.699224472045898,-5.824936866760254,2.6244566440582275,false
216605.83405175002,0.533174991607666,0.45382213592529297,-0.15583404898643494,-6.970451831817627,-5.727713108062744,2.6676855087280273,false
216605.84400975,0.4639551639556885,0.39579981565475464,-0.15704941749572754,-6.403027057647705,-5.6235127449035645,2.5588531494140625,false
216605.85396875002,0.41273409128189087,0.3694416880607605,-0.05145159363746643,-5.332487106323242,-6.060759544372559,2.348095417022705,false
216605.86392675003,0.40590935945510864,0.3859792947769165,0.07013976573944092,-4.677185535430908,-6.254157543182373,1.9608702659606934,false
216605.87388575,0.44420140981674194,0.45641207695007324,0.1825912892818451,-4.309463977813721,-6.074987888336182,1.561012625694275,false
216605.88384475,0.5303589701652527,0.6564476490020752,0.29116493463516235,-3.8639743328094482,-5.958791732788086,0.9696791172027588,false
216605.89380275,0.5677720308303833,0.7909143567085266,0.4287896156311035,-3.5495877265930176,-6.050913333892822,0.6070157289505005,false
216605.90376175,0.5878592133522034,0.7415587306022644,0.3995025157928467,-3.309556722640991,-6.092304706573486,0.3586203157901764,false
216605.91371975,0.6024497151374817,0.6677156090736389,0.41389989852905273,-3.4185574054718018,-5.887502670288086,-0.09674029797315598,false
216605.92367875003,0.5537989139556885,0.6180756688117981,0.42765140533447266,-3.793313503265381,-5.536728382110596,-0.5565239787101746,false
216605.93363675,0.45469528436660767,0.563191831111908,0.39617252349853516,-4.182458877563477,-5.1172943115234375,-0.8683447241783142,false
216605.94359575002,0.4065067172050476,0.46269166469573975,0.45794904232025146,-4.858647346496582,-4.755645751953125,-1.4242833852767944,false
216605.95355375,0.44545769691467285,0.4122525453567505,0.5344071388244629,-5.181830406188965,-4.319797992706299,-1.9187719821929932,false
216605.96351275002,0.4889989495277405,0.4731978178024292,0.6067513227462769,-5.234733581542969,-3.818446397781372,-2.383777141571045,false
216605.97347075,0.5019102096557617,0.5173110365867615,0.6562048196792603,-5.074836730957031,-3.280562400817871,-2.6640543937683105,false
216605.98342975002,0.45241302251815796,0.5250325202941895,0.6380318403244019,-4.568542957305908,-2.7039637565612793,-3.1396989822387695,false
216605.99338875,0.4285465478897095,0.6226977109909058,0.5793894529342651,-3.886474132537842,-2.1936380863189697,-3.372727632522583,false
216606.00334675002,0.45810818672180176,0.748028039932251,0.4157395362854004,-3.2795259952545166,-1.7790316343307495,-3.458847999572754,false
216606.01330575,0.6359508633613586,0.8455363512039185,0.36095309257507324,-2.9284205436706543,-1.467481017112732,-3.7134454250335693,false
216606.02326375002,0.890648603439331,0.9560256600379944,0.42255938053131104,-2.266758680343628,-1.5201539993286133,-3.9572997093200684,false
216606.03322275,1.0304067134857178,1.0609225034713745,0.4979407787322998,-1.913104772567749,-1.2879798412322998,-3.9979248046875,false
216606.04318075,1.0885834693908691,1.1735055446624756,0.4900844097137451,-1.7165358066558838,-0.9564173221588135,-4.191959857940674,false
216606.05313975,1.1337242126464844,1.2125167846679688,0.47071659564971924,-1.582690954208374,-0.7776134610176086,-4.373010635375977,false
216606.06309775,1.144719123840332,1.0623388290405273,0.441756010055542,-1.4327045679092407,-0.4277228116989136,-4.304197788238525,false
216606.07305675,1.2382882833480835,0.8638243675231934,0.45754969120025635,-1.1366233825683594,0.508959949016571,-4.516594409942627,false
216606.08301575002,1.349686861038208,0.7117268443107605,0.5153936147689819,-1.9059842824935913,1.0232592821121216,-4.424944877624512,false
216606.09297375003,1.2207903861999512,0.486652672290802,0.632156491279602,-1.6636637449264526,0.36815327405929565,-3.7778167724609375,false
216606.10293275001,1.2447179555892944,0.4912794828414917,0.8239878416061401,-1.179484248161316,-0.08186447620391846,-3.304664373397827,false
216606.11289075002,1.5454704761505127,0.5841062664985657,0.8754674196243286,-0.9649139642715454,-0.11298777163028717,-3.0564608573913574,false
216606.12284975,1.4674569368362427,0.3636302947998047,0.7975562810897827,-0.6161771416664124,0.28054314851760864,-2.7781217098236084,false
216606.13280775002,1.1021175384521484,0.042519986629486084,0.7961761951446533,-0.10700389742851257,0.8063496947288513,-2.4857065677642822,false
216606.14276675,0.7693553566932678,-0.31322717666625977,0.8118523359298706,0.7745388150215149,0.9612653851509094,-2.209855079650879,false
216606.15272475002,0.5596010684967041,-0.6268503665924072,0.8198950290679932,1.7355934381484985,0.9339693188667297,-2.0375049114227295,false
216606.16268375,0.4300087094306946,-0.9104300737380981,0.9088231325149536,2.291285514831543,0.7742298245429993,-1.9817993640899658,false
216606.17264275003,0.27602294087409973,-1.1046936511993408,1.049424171447754,2.323676109313965,0.8441357016563416,-1.913731336593628,false
216606.18260075,0.0486484169960022,-1.1863865852355957,1.158392071723938,1.8753197193145752,1.490890622138977,-1.8057665824890137,false
216606.19255975002,-0.17837350070476532,-1.2847130298614502,1.2691552639007568,1.2313021421432495,2.7320454120635986,-1.9732773303985596,false
216606.20251775,-0.3672502934932709,-1.4336121082305908,1.3596415519714355,0.7308653593063354,3.8702809810638428,-1.7266767024993896,false
216606.21247675002,-0.502408504486084,-1.5666131973266602,1.378947377204895,0.6230366826057434,4.453387260437012,-1.5912671089172363,false
216606.22243475,-0.44207894802093506,-1.736012578010559,1.3055213689804077,0.7903192639350891,4.854706287384033,-1.4236853122711182,false
216606.23239375002,-0.19215744733810425,-1.8647657632827759,1.1214332580566406,0.9901365041732788,5.192580699920654,-1.288196086883545,false
216606.24235175,0.030403494834899902,-1.8713548183441162,0.9151579141616821,1.2853461503982544,5.374227046966553,-1.0631417036056519,false
216606.25231075002,0.2250218689441681,-1.838471531867981,0.7947695255279541,1.6191693544387817,5.338947772979736,-0.9709595441818237,false
216606.26226875003,0.42240530252456665,-1.8397061824798584,0.6644666194915771,1.7666047811508179,5.0781636238098145,-0.6606746912002563,false
216606.27222775,0.5920977592468262,-1.835240364074707,0.552945613861084,1.686657190322876,4.383962631225586,-0.3352806568145752,false
216606.28218716668,0.7177063226699829,-1.7921087741851807,0.5461459159851074,1.2661947011947632,3.8922197818756104,-0.06170910969376564,false
216606.2921451667,0.807803750038147,-1.8658030033111572,0.5590147972106934,0.6572714447975159,3.5805203914642334,0.17061839997768402,false
216606.30210416668,0.7584035396575928,-2.0472323894500732,0.5114120244979858,-0.034242138266563416,3.416532516479492,0.3393194377422333,false
216606.3120621667,0.626514732837677,-2.2035627365112305,0.385021448135376,-0.7948158979415894,3.622681140899658,0.5744464993476868,false
216606.32202116668,0.5850871801376343,-2.3567705154418945,0.15685415267944336,-1.5675127506256104,3.7622082233428955,0.9252472519874573,false
216606.3319791667,0.5999681949615479,-2.4045650959014893,-0.14478683471679688,-1.8842310905456543,3.3244259357452393,1.3582080602645874,false
216606.34193816668,0.6343748569488525,-2.3093531131744385,-0.4162602424621582,-2.5239667892456055,2.965270519256592,1.6788005828857422,false
216606.35189616669,0.7023970484733582,-2.1429967880249023,-0.7049466371536255,-2.955381155014038,2.3860137462615967,1.8073302507400513,false
216606.36185516667,0.7724647521972656,-1.9370551109313965,-0.8692103624343872,-3.269611120223999,1.8850717544555664,2.051182985305786,false
216606.3718141667,0.7321794033050537,-1.802738904953003,-0.8647631406784058,-3.6643218994140625,1.6727092266082764,2.537393093109131,false
216606.38177216667,0.5866729021072388,-1.8028258085250854,-0.7660001516342163,-3.653142213821411,1.5900068283081055,3.029322862625122,false
216606.3917311667,0.40853047370910645,-1.8961403369903564,-0.5077768564224243,-3.8288607597351074,1.3395283222198486,3.186702251434326,false
216606.40168916667,0.31244146823883057,-1.9630136489868164,-0.4376835525035858,-4.387033462524414,1.066754937171936,2.2688398361206055,false
216606.4116481667,0.41566726565361023,-1.6630010604858398,-0.5451743006706238,-4.985026836395264,1.1743777990341187,1.3992010354995728,false
216606.42160616667,0.5507749319076538,-1.041187047958374,-0.532351016998291,-5.254124164581299,0.30635616183280945,0.9493012428283691,false
216606.43156516668,0.7185293436050415,-0.3829975724220276,-0.47092095017433167,-4.689361095428467,-0.7820881605148315,1.9733766317367554,false
216606.4415231667,0.9457483291625977,0.1362268328666687,-0.5533545017242432,-4.106787204742432,-1.7704333066940308,3.2711715698242188,false
216606.45148216668,1.2407246828079224,0.5554190278053284,-0.8741703033447266,-4.08860445022583,-3.114532947540283,3.8368449211120605,false
216606.46144116667,1.4257924556732178,1.1612443923950195,-1.2284168004989624,-3.7757654190063477,-4.364448070526123,3.3521997928619385,false
216606.47139916668,1.4377198219299316,1.9548544883728027,-1.4825795888900757,-3.4396510124206543,-3.410560131072998,2.6829137802124023,false
216606.48135816667,1.2080137729644775,2.519710063934326,-1.6239855289459229,-3.4744887351989746,-1.9269152879714966,1.7079660892486572,false
216606.49131616668,1.081673502922058,3.1389102935791016,-1.6242066621780396,-3.655341863632202,-2.87087082862854,0.9276117086410522,false
216606.50127516667,1.353313684463501,3.7073891162872314,-1.1383694410324097,-2.1080400943756104,-5.462482929229736,-0.8930957317352295,false
216606.51123316668,1.9635006189346313,4.002769947052002,-0.39698636531829834,-4.175914764404297,-3.903815507888794,-1.3428971767425537,false
216606.5211921667,2.0087361335754395,3.9337358474731445,0.10395455360412598,-2.9163050651550293,-5.4031572341918945,-1.604653239250183,false
216606.53115016667,1.8496432304382324,4.264578342437744,0.47152161598205566,-1.4817050695419312,-5.72528076171875,-1.790940523147583,false
216606.5411091667,2.33390736579895,4.622452259063721,0.8746745586395264,-0.4401787221431732,-5.054121494293213,-2.4707250595092773,false
216606.55106716667,2.1255648136138916,4.034657001495361,0.9790604114532471,0.8409213423728943,-4.237733364105225,-2.641557455062866,false
216606.5610261667,1.6353777647018433,3.3422701358795166,1.3834089040756226,1.8884258270263672,-3.6432533264160156,-2.8165812492370605,false
216606.57098516668,1.3182568550109863,2.631237506866455,1.6523981094360352,2.034017562866211,-3.0282349586486816,-2.6523804664611816,false
216606.5809431667,1.090686559677124,2.1120846271514893,1.8435604572296143,2.0691680908203125,-2.963961601257324,-2.897948980331421,false
216606.59090216667,0.8551282286643982,1.6662427186965942,1.9613776206970215,2.2257611751556396,-2.913269281387329,-2.986194372177124,false
216606.60086016668,0.5916942954063416,1.1471261978149414,2.041867733001709,2.350616216659546,-2.791299343109131,-3.105038642883301,false
216606.61081916667,0.21385735273361206,0.5160192847251892,2.0174384117126465,2.350264549255371,-2.506039619445801,-3.187134265899658,false
216606.62077716668,-0.09719717502593994,0.052548348903656006,1.8834890127182007,2.22031307220459,-2.0191664695739746,-3.348026990890503,false
216606.63073616667,-0.3647879362106323,-0.2874940037727356,1.7106285095214844,2.4152584075927734,-1.4571750164031982,-3.39839768409729,false
216606.64069416668,-0.5429095029830933,-0.6104434728622437,1.6312901973724365,3.025705337524414,-0.6334847807884216,-3.4101669788360596,false
216606.65065316667,-0.6128239631652832,-0.9742057919502258,1.7082281112670898,3.642839193344116,0.8463068008422852,-3.095893621444702,false
216606.66061116668,-0.654415488243103,-1.3501423597335815,1.8519920110702515,4.198547840118408,1.9531099796295166,-2.364354372024536,false
216606.6705701667,-0.6888494491577148,-1.7033226490020752,1.8435142040252686,4.264892101287842,2.215721607208252,-2.2039830684661865,false
216606.68052916668,-0.5640950202941895,-1.9971375465393066,1.5815719366073608,3.178224802017212,2.1278719902038574,-2.0713284015655518,false
216606.6904871667,-0.26015207171440125,-2.0650439262390137,1.2934653759002686,1.7427247762680054,1.5231592655181885,-1.6894803047180176,false
216606.70044616668,0.0006607770919799805,-1.8364200592041016,1.2388023138046265,0.7478413581848145,0.997999370098114,-1.1692612171173096,false
216606.7104041667,0.12296417355537415,-1.761983871459961,1.2578707933425903,0.37225285172462463,1.16074538230896,-0.7265512347221375,false
216606.72036316668,0.03907674551010132,-2.0903396606445312,1.031087875366211,0.3693540692329407,1.755968451499939,-0.3651143014431,false
216606.7303211667,-0.1811630129814148,-2.5402445793151855,0.6693789958953857,0.045972004532814026,2.3728866577148438,-0.17356882989406586,false
216606.74028016668,-0.3011808693408966,-2.7644155025482178,0.3574376106262207,-0.585063099861145,2.2983851432800293,0.12291586399078369,false
216606.7502381667,-0.2333405315876007,-2.632849931716919,0.2232682704925537,-1.1726988554000854,1.777800440788269,0.37597501277923584,false
216606.76019716667,-0.0360085666179657,-2.394012451171875,0.2337193489074707,-1.5324925184249878,1.5682384967803955,0.5007492899894714,false
216606.7701561667,0.18399977684020996,-2.2799088954925537,0.2537931203842163,-1.707248568534851,1.506191611289978,0.48496389389038086,false
216606.78011416667,0.24374648928642273,-2.337399482727051,0.16915595531463623,-1.8321466445922852,1.495158076286316,0.5842556357383728,false
216606.7900731667,0.18088805675506592,-2.370166301727295,-0.017639845609664917,-1.9030776023864746,1.579135537147522,0.8107777237892151,false
216606.80003116667,0.12022405862808228,-2.203205108642578,-0.18418097496032715,-1.9658070802688599,1.5000900030136108,1.0428768396377563,false
216606.8099901667,0.14348548650741577,-1.9158999919891357,-0.26957574486732483,-2.0500357151031494,1.3700292110443115,1.2090502977371216,false
216606.81994816667,0.2224092185497284,-1.6265897750854492,-0.2980091869831085,-2.1955161094665527,1.0742255449295044,1.1687370538711548,false
216606.82990716668,0.2660715878009796,-1.4177508354187012,-0.27979564666748047,-2.2107253074645996,0.7915437817573547,1.024139642715454,false
216606.8398651667,0.2800777852535248,-1.3608460426330566,-0.21855080127716064,-2.0910532474517822,0.6037309169769287,0.6821996569633484,false
216606.84982416668,0.26298391819000244,-1.3250221014022827,-0.20731592178344727,-1.9575390815734863,0.5140665769577026,0.17991521954536438,false
216606.8597821667,0.1957860291004181,-1.1408714056015015,-0.2618739902973175,-1.518043041229248,0.3355664610862732,-0.09416922926902771,false
216606.86974116668,0.09912040829658508,-0.8015560507774353,-0.31318387389183044,-0.03018634393811226,-0.2556267976760864,-0.009656744077801704,false
216606.87970016667,0.10934281349182129,-0.3325522541999817,-0.29566898941993713,0.8747754693031311,-0.2568894922733307,0.6472450494766235,false
216606.88965816668,0.08752316236495972,0.1891413927078247,-0.2766730487346649,0.4560287594795227,-0.7868779301643372,1.5811240673065186,false
216606.89961716667,0.12047836184501648,0.7216280102729797,-0.2614961862564087,0.8449983596801758,-1.454266905784607,1.9207749366760254,false
216606.90957516668,0.5038650035858154,1.7979925870895386,-0.33462411165237427,1.5008881092071533,-0.9269903898239136,2.36429500579834,false
216606.9195341667,0.9841222763061523,2.7735788822174072,-0.804573655128479,1.3210046291351318,-1.0802152156829834,2.004185914993286,false
216606.92949216667,1.1717712879180908,2.9818856716156006,-1.1608037948608398,0.1646350771188736,-1.7528456449508667,1.2094165086746216,false
216606.9394511667,1.0811798572540283,2.785494804382324,-1.0907312631607056,-0.9198926687240601,-2.1761302947998047,0.30786818265914917,false
216606.94940916667,1.0891436338424683,2.8839657306671143,-1.0665501356124878,-2.455622673034668,-3.234649181365967,-0.7144628763198853,false
216606.9593681667,1.3247817754745483,3.2513670921325684,-0.993402361869812,-3.99653959274292,-4.339263916015625,-1.6669533252716064,false
216606.96932616667,1.574416995048523,3.492995262145996,-0.6281627416610718,-5.283604621887207,-4.351719856262207,-2.190242052078247,false
216606.9792851667,1.5631091594696045,3.4995713233947754,-0.15482786297798157,-5.268725395202637,-4.58073091506958,-2.236821174621582,false
216606.98924416667,1.2585365772247314,3.287517547607422,0.11208400130271912,-4.518449306488037,-4.113825798034668,-2.3450639247894287,false
216606.99920216668,1.1101493835449219,3.065225839614868,0.24779853224754333,-3.0163745880126953,-3.358325242996216,-2.7005343437194824,false
216607.00916116667,0.8215553164482117,2.673008441925049,0.2766284644603729,-1.1329861879348755,-2.369070053100586,-2.754915475845337,false
216607.01911916668,0.4087506830692291,1.9585739374160767,0.41125431656837463,0.5422007441520691,-1.5726765394210815,-2.7411155700683594,false
216607.02907816667,0.12101265788078308,1.1698400974273682,0.8107221126556396,1.7534801959991455,-1.0141829252243042,-2.603971242904663,false
216607.03903616668,0.0004897415637969971,0.6608601212501526,1.1899460554122925,2.454651117324829,-0.6135283708572388,-2.7536051273345947,false
216607.04899516667,-0.14412087202072144,0.3081090450286865,1.4617619514465332,2.848430633544922,-0.09019670635461807,-2.835055112838745,false
216607.05895316668,-0.30288931727409363,-0.041149914264678955,1.5654412508010864,2.9913318157196045,1.0033793449401855,-2.83345627784729,false
216607.06891216667,-0.4310178756713867,-0.4502970576286316,1.6397502422332764,3.6996304988861084,2.4532949924468994,-2.190401315689087,false
216607.07887116668,-0.5256617069244385,-0.9205269813537598,1.7025915384292603,4.678606033325195,3.0529661178588867,-1.7880278825759888,false
216607.0888291667,-0.5036512017250061,-1.5178134441375732,1.7349166870117188,4.345904350280762,3.5807316303253174,-1.6958309412002563,false
216607.09878816668,-0.434457391500473,-2.1348822116851807,1.5518481731414795,3.3842411041259766,3.8441615104675293,-1.3739644289016724,false
216607.1087461667,-0.29097238183021545,-2.268362045288086,1.4599854946136475,2.6115994453430176,3.8394267559051514,-0.7416924238204956,false
216607.11870516668,-0.07004876434803009,-2.1760354042053223,1.5520576238632202,1.9610636234283447,3.8374626636505127,-0.10516562312841415,false
216607.1286631667,0.13614250719547272,-2.2058627605438232,1.468729853630066,1.1069282293319702,3.6384143829345703,0.573476254940033,false
216607.13862216668,0.2561272382736206,-2.2673635482788086,1.2973296642303467,0.29981234669685364,3.474749803543091,1.0595099925994873,false
216607.1485801667,0.3551566004753113,-2.3395252227783203,1.1317172050476074,-0.27093663811683655,3.329712390899658,1.10458242893219,false
216607.15853916667,0.4413113594055176,-2.490527629852295,0.8599995374679565,-0.5800630450248718,3.117732286453247,0.9371455907821655,false
216607.16849716668,0.4870370626449585,-2.7077627182006836,0.5436582565307617,-1.2421095371246338,3.037780523300171,0.7793847322463989,false
216607.17845616667,0.4841201901435852,-2.7820873260498047,0.22985492646694183,-1.767385721206665,3.096670389175415,0.9097064733505249,false
216607.1884151667,0.4118374288082123,-2.5884652137756348,0.1266690492630005,-1.8141000270843506,2.879985809326172,1.2206486463546753,false
216607.19837316667,0.3399672210216522,-2.2827422618865967,0.08647321164608002,-1.3485944271087646,2.7000722885131836,1.4674029350280762,false
216607.2083321667,0.35422462224960327,-2.020627737045288,-0.08626559376716614,-0.6836023330688477,2.4594366550445557,1.5185794830322266,false
216607.21829016667,0.42106541991233826,-1.764772891998291,-0.38007399439811707,-0.3489634096622467,2.2425942420959473,1.7510894536972046,false
216607.22824916668,0.4431729316711426,-1.473987102508545,-0.6925603151321411,-0.39581799507141113,1.7893353700637817,1.8520349264144897,false
216607.2382071667,0.45248720049858093,-1.2137730121612549,-0.8414422273635864,-0.4981765151023865,1.0361416339874268,1.9754114151000977,false
216607.24816616668,0.4225479066371918,-1.0543254613876343,-0.8799036741256714,-0.6104791164398193,0.4637658894062042,2.245746612548828,false
216607.2581241667,0.360354483127594,-1.0374503135681152,-0.8238527774810791,-0.09392910450696945,-0.15848933160305023,1.8154693841934204,false
216607.26808316668,0.25985202193260193,-1.0505995750427246,-0.6557779312133789,-0.0002755832392722368,-0.521804690361023,1.352179765701294,false
216607.278040875,0.15355843305587769,-0.8812224864959717,-0.6667389869689941,-1.1446890830993652,-0.15019454061985016,1.9745595455169678,false
216607.287999875,0.07126724720001221,-0.4431259036064148,-0.7550666332244873,-2.3489203453063965,0.11744490265846252,2.463318109512329,false
216607.29795887502,0.22582030296325684,0.18668246269226074,-0.8552610874176025,-2.875460386276245,-0.4120672047138214,2.3885467052459717,false
216607.30791687503,0.2530318796634674,0.7181390523910522,-1.1184582710266113,-2.3888425827026367,-1.5657936334609985,2.2169556617736816,false
216607.31787587501,0.08780649304389954,1.1201292276382446,-1.382480502128601,-1.2803813219070435,-1.0249431133270264,1.8430415391921997,false
216607.32783387502,-0.11798369884490967,1.4181097745895386,-1.5115916728973389,-0.9991995692253113,-0.05483531951904297,1.1170390844345093,false
216607.337792875,-0.24404829740524292,1.7639973163604736,-1.5106288194656372,-0.1736636757850647,0.016767626628279686,0.1761670708656311,false
216607.34775087502,-0.0065299272537231445,2.290905475616455,-1.334714651107788,0.1337689757347107,-0.5081219673156738,-0.9639478921890259,false
216607.357709875,0.49335578083992004,2.616356134414673,-1.1127541065216064,-0.5650619864463806,-1.0672842264175415,-1.8388200998306274,false
216607.36766787502,1.041447639465332,2.7727766036987305,-1.005477786064148,-0.5205911993980408,-2.1026458740234375,-1.5554152727127075,false
216607.377626875,1.867249846458435,3.293835401535034,-0.7571249604225159,-0.4711054861545563,-3.0139617919921875,-0.41367796063423157,false
216607.38758487502,2.639388084411621,3.508749485015869,-0.5118510723114014,-0.5613962411880493,-3.8332996368408203,-0.5678014755249023,false
216607.397543875,2.674415111541748,3.277007818222046,-0.13278403878211975,-0.7144845724105835,-3.6261603832244873,-1.0263519287109375,false
216607.40750287502,2.006096363067627,2.840268135070801,0.15583977103233337,-1.0855319499969482,-3.050842523574829,-1.4984885454177856,false
216607.417460875,1.3500317335128784,2.3192081451416016,0.3284696638584137,-1.6245596408843994,-3.274432897567749,-1.7870615720748901,false
216607.42741987502,1.0686006546020508,1.949939250946045,0.5503002405166626,-1.6702405214309692,-3.5434274673461914,-1.8108667135238647,false
216607.437377875,0.9368011951446533,1.5789587497711182,0.8721182346343994,-0.9540327191352844,-3.8110780715942383,-1.8377605676651,false
216607.44733687502,0.6477746963500977,1.1158905029296875,1.1861515045166016,0.15308567881584167,-3.981982707977295,-1.8473548889160156,false
216607.457294875,0.2692987620830536,0.6911580562591553,1.3074887990951538,1.227587342262268,-3.8860325813293457,-1.9442757368087769,false
216607.46725387502,-0.10042166709899902,0.38263803720474243,1.3358449935913086,1.9867533445358276,-3.3933300971984863,-1.7443745136260986,false
216607.47721187503,-0.43770694732666016,0.14917880296707153,1.4153631925582886,2.406140089035034,-2.497084856033325,-1.9225132465362549,false
216607.487170875,-0.6752856969833374,-0.10178852081298828,1.5130871534347534,2.317639112472534,-0.9645151495933533,-2.4394350051879883,false
216607.497129875,-0.862616777420044,-0.412169873714447,1.5432608127593994,2.1183114051818848,1.2777518033981323,-2.523616075515747,false
216607.507087875,-0.987587571144104,-0.7502527236938477,1.6373555660247803,2.1228504180908203,3.1699728965759277,-2.4488298892974854,false
216607.517046875,-0.9415105581283569,-1.1031031608581543,1.7009724378585815,2.553234577178955,4.529480457305908,-1.3731411695480347,false
216607.527004875,-0.7850536108016968,-1.4096713066101074,1.5953588485717773,3.27254581451416,4.766824245452881,-0.5598845481872559,false
216607.53696387503,-0.4558369815349579,-1.7125017642974854,1.4238851070404053,3.617196798324585,4.542324066162109,-0.5027401447296143,false
216607.546921875,-0.06992298364639282,-1.986963152885437,1.3333745002746582,3.5928399562835693,3.964949607849121,-0.5180341601371765,false
216607.55688087502,0.16245710849761963,-2.0153486728668213,1.326610803604126,3.2789015769958496,3.33847713470459,-0.5619690418243408,false
216607.566838875,0.30544766783714294,-1.8463281393051147,1.2564572095870972,2.7195067405700684,2.813819408416748,-0.34414350986480713,false
216607.57679787502,0.32076555490493774,-1.7717523574829102,1.1043721437454224,2.2042808532714844,2.5093393325805664,0.1546807438135147,false
216607.586755875,0.21648311614990234,-1.9330756664276123,0.8700203895568848,1.8339738845825195,2.7180869579315186,0.7077425718307495,false
216607.59671487502,0.0888684093952179,-2.268838405609131,0.5333316326141357,1.2816541194915771,3.1683096885681152,1.1887564659118652,false
216607.606673875,-0.01198306679725647,-2.6348211765289307,0.22161829471588135,0.5912183523178101,3.4684274196624756,1.5394409894943237,false
216607.61663187502,-0.04847535490989685,-2.7879133224487305,0.12909317016601562,0.03025709092617035,3.4143247604370117,1.8721903562545776,false
216607.626590875,-0.0037270784378051758,-2.6707100868225098,0.12528777122497559,-0.25626733899116516,2.986112117767334,2.035173177719116,false
216607.63654887502,0.09793353080749512,-2.3907158374786377,0.06979846954345703,-0.4504408836364746,2.4503121376037598,1.9833695888519287,false
216607.646507875,0.18832990527153015,-2.050429344177246,-0.10728217661380768,-0.5244852304458618,1.5282361507415771,1.7534078359603882,false
216607.656465875,0.21233415603637695,-1.7441437244415283,-0.24469329416751862,-0.46231138706207275,0.8000422120094299,1.9319133758544922,false
216607.666424875,0.17238947749137878,-1.4831515550613403,-0.33294880390167236,-0.13183413445949554,0.19549056887626648,1.9996137619018555,false
216607.676382875,0.13139945268630981,-1.2369413375854492,-0.3896653652191162,0.3640099763870239,-0.23695938289165497,1.312715768814087,false
216607.686341875,0.09744387865066528,-0.9977324604988098,-0.43549418449401855,0.8619720935821533,-0.19609929621219635,0.09514603763818741,false
216607.696299875,-0.02505284547805786,-0.7807654738426208,-0.44241106510162354,-0.24476328492164612,-0.34048357605934143,-0.39636433124542236,false
216607.70625887503,-0.1524413824081421,-0.5698291063308716,-0.45553290843963623,-1.602056860923767,-0.15307001769542694,-0.17179566621780396,false
216607.71621787501,-0.014382481575012207,-0.2347719669342041,-0.518589973449707,-2.167914867401123,-0.0929960161447525,0.709333598613739,false
216607.72617587502,0.10433712601661682,0.08341836929321289,-0.7213293313980103,-2.276437282562256,0.047117941081523895,1.5602530241012573,false
216607.736134875,0.23409557342529297,0.40267860889434814,-1.0828121900558472,-2.088453531265259,-0.016769293695688248,1.7946528196334839,false
216607.74609287502,0.3018137812614441,0.7657568454742432,-1.3093345165252686,-2.039949655532837,0.3056657314300537,1.3145027160644531,false
216607.756051875,0.3483183681964874,1.1774516105651855,-1.3846534490585327,-2.3300957679748535,0.2985531687736511,0.4326077103614807,false
216607.76600987502,0.5493015050888062,1.6462490558624268,-1.3902074098587036,-2.635679006576538,-0.2834426164627075,-0.14849774539470673,false
216607.775968875,1.0420312881469727,2.1003329753875732,-1.2154982089996338,-2.1713781356811523,-1.1504966020584106,0.5028733611106873,false
216607.78592687502,1.8772982358932495,2.565953493118286,-1.030912160873413,-1.942393183708191,-3.286386013031006,0.891283392906189,false
216607.795885875,2.8892629146575928,2.935723066329956,-0.9397878646850586,-1.6430233716964722,-3.7197465896606445,0.9295306205749512,false
216607.80584487502,2.955383062362671,3.1789965629577637,-0.6675028800964355,-1.373131513595581,-3.394747018814087,0.3561464250087738,false
216607.815802875,1.9397826194763184,2.9947571754455566,-0.42556071281433105,-1.2112001180648804,-2.853259325027466,-0.049426376819610596,false
216607.82576187502,1.0551555156707764,2.546358585357666,-0.38620686531066895,-1.599753975868225,-3.0607032775878906,-0.3591088652610779,false
216607.835719875,0.8989174962043762,2.3533263206481934,-0.20623567700386047,-2.1977651119232178,-3.7297170162200928,-0.6114955544471741,false
216607.84567887502,1.043929100036621,2.1701512336730957,0.07175680994987488,-2.654222249984741,-4.015051364898682,-0.9634495973587036,false
216607.855636875,0.9148079752922058,1.795671820640564,0.38197851181030273,-2.2968192100524902,-3.8695719242095947,-1.2720922231674194,false
216607.86559587502,0.4137302041053772,1.3183810710906982,0.6184701919555664,-1.3990038633346558,-3.5900752544403076,-1.4792503118515015,false
216607.87555387503,-0.07521730661392212,0.8657612800598145,0.8570581674575806,-0.1931789219379425,-2.888117790222168,-1.304140567779541,false
216607.88551287501,-0.4235081672668457,0.5870944857597351,1.006640911102295,1.1540788412094116,-2.0986576080322266,-1.3721641302108765,false
216607.89547087502,-0.6230611205101013,0.4768110513687134,0.9864267110824585,2.190059185028076,-1.6103789806365967,-1.9095683097839355,false
216607.905429875,-0.7993680834770203,0.3390424847602844,0.9246585369110107,2.650343179702759,-1.2086509466171265,-2.9628992080688477,false
216607.915388875,-0.9042734503746033,0.10894775390625,0.9463635683059692,2.849169969558716,0.10157685726881027,-3.2663826942443848,false
216607.925346875,-0.9349560737609863,-0.2218356728553772,1.1138843297958374,2.768770933151245,1.5734026432037354,-2.8772811889648438,false
216607.93530587503,-0.8130521178245544,-0.6100075840950012,1.388635277748108,2.8109776973724365,2.969844102859497,-2.5335400104522705,false
216607.945263875,-0.6546720266342163,-0.9702781438827515,1.566763997077942,2.749929904937744,3.9287030696868896,-1.7792726755142212,false
216607.95522287503,-0.5595215559005737,-1.289300560951233,1.6706647872924805,2.5656826496124268,3.841177225112915,-1.2765291929244995,false
216607.965180875,-0.3788197934627533,-1.565985918045044,1.7322498559951782,2.6291942596435547,3.32027530670166,-1.104562759399414,false
216607.97513987502,-0.20584502816200256,-1.7771865129470825,1.756635308265686,1.7413997650146484,2.9515879154205322,-1.0537039041519165,false
216607.985097875,-0.09322601556777954,-1.853293776512146,1.5983028411865234,0.411808580160141,2.875713586807251,-1.1225495338439941,false
216607.99505687502,-0.004830986261367798,-1.648847222328186,1.2605431079864502,-0.4825439453125,2.822134017944336,-0.9693494439125061,false
216608.005015875,-0.0165482759475708,-1.4375436305999756,1.0842700004577637,-1.045896053314209,2.727848529815674,-0.6394397020339966,false
216608.01497387502,-0.035159915685653687,-1.5830012559890747,0.8117430210113525,-1.1471301317214966,2.6150081157684326,-0.3679880201816559,false
216608.024932875,-0.00530928373336792,-1.9487650394439697,0.4219529628753662,-0.38983744382858276,3.1922872066497803,-0.2695956528186798,false
216608.03489087502,-0.017242878675460815,-2.244015693664551,0.1563091278076172,0.07364923506975174,3.8050334453582764,-0.3125574290752411,false
216608.044849875,-0.07046449184417725,-2.265043258666992,0.13255690038204193,0.19880104064941406,3.816298723220825,0.05419047921895981,false
216608.054807875,-0.06529077887535095,-1.9600811004638672,0.27722859382629395,0.8639253377914429,3.3817784786224365,0.6876484751701355,false
216608.064766875,0.03596842288970947,-1.5814807415008545,0.44960200786590576,1.975864052772522,2.598069429397583,1.459718108177185,false
216608.074724875,0.13905492424964905,-1.4003703594207764,0.39928650856018066,2.8786213397979736,2.0184173583984375,2.069382905960083,false
216608.084683875,0.22430157661437988,-1.3681899309158325,0.12941157817840576,3.003005266189575,1.4863958358764648,2.2022817134857178,false
216608.094641875,0.2679704427719116,-1.3463996648788452,-0.10507786273956299,2.6081225872039795,0.4683595895767212,2.6063473224639893,false
216608.10460087503,0.24515300989151,-1.3496160507202148,-0.241943359375,2.4435534477233887,-0.28254133462905884,2.9691081047058105,false
216608.11455987502,0.25811493396759033,-1.349214792251587,-0.5113834738731384,1.641026496887207,-0.5959264636039734,1.972246527671814,false
216608.12451787503,0.3571789264678955,-1.276193618774414,-0.8879270553588867,-0.22665558755397797,-0.15155407786369324,0.5245459675788879,false
216608.134476875,0.3182923495769501,-1.0700147151947021,-1.1105660200119019,-1.7980164289474487,1.1771913766860962,1.2939817905426025,false
216608.14443487502,0.15336644649505615,-0.6812940835952759,-1.1836929321289062,-2.0564451217651367,1.1959259510040283,1.6261181831359863,false
216608.154393875,0.36022448539733887,-0.2747914791107178,-1.2244535684585571,-0.724831223487854,0.3995392620563507,1.8552316427230835,false
216608.16435187502,0.711562991142273,0.15006834268569946,-1.624537706375122,0.7912811040878296,-0.26967132091522217,2.8595476150512695,false
216608.174310875,1.1445640325546265,0.5987556576728821,-2.1013948917388916,0.8819050788879395,-0.752379298210144,3.2737367153167725,false
216608.18426887502,1.9313764572143555,1.2580113410949707,-2.5145251750946045,0.9373709559440613,-1.786337971687317,3.066357135772705,false
216608.194227875,2.5730857849121094,2.1354525089263916,-2.6389524936676025,0.7286631464958191,-2.3615384101867676,3.182628870010376,false
216608.20418687502,2.604454517364502,2.4977946281433105,-2.3878986835479736,-0.2547416388988495,-2.68906831741333,3.182870626449585,false
216608.214144875,2.2290754318237305,2.2135813236236572,-2.100842237472534,-1.6883069276809692,-3.402277946472168,2.8130178451538086,false
216608.22410387502,1.9959722757339478,1.9449384212493896,-1.6474770307540894,-2.8435962200164795,-4.31588888168335,2.078859806060791,false
216608.234061875,1.9634928703308105,1.9359712600708008,-1.1945741176605225,-4.218863010406494,-4.4209513664245605,1.5943491458892822,false
216608.24402087502,1.906602144241333,1.9287152290344238,-0.7638611197471619,-4.280361175537109,-4.783041954040527,1.151806354522705,false
216608.253978875,1.7056057453155518,2.0460221767425537,-0.2226654291152954,-3.750459909439087,-4.878662586212158,0.40091046690940857,false
216608.26393787502,1.2464708089828491,2.0298542976379395,0.312836229801178,-2.9246487617492676,-5.10294246673584,-0.6172165870666504,false
216608.27389587503,0.5029944777488708,1.7662668228149414,0.8100330233573914,-1.4734166860580444,-4.789471626281738,-1.265528678894043,false
216608.28385475,-0.17740929126739502,1.6378223896026611,1.202884316444397,0.2976544499397278,-3.947211265563965,-1.6525728702545166,false
216608.29381375,-0.6444578766822815,1.537695288658142,1.257785677909851,1.3785561323165894,-2.832463502883911,-2.326059579849243,false
216608.30377175,-0.9614173173904419,1.206217646598816,1.266156554222107,1.6973609924316406,-1.205937385559082,-2.878114700317383,false
216608.31373075,-1.1484475135803223,0.7683510184288025,1.4721380472183228,1.7227874994277954,0.37135234475135803,-3.4730021953582764,false
216608.32368875,-1.1393746137619019,0.3438369035720825,1.7828761339187622,1.2798701524734497,1.9035834074020386,-3.6920907497406006,false
216608.33364775003,-1.0090399980545044,-0.08164709806442261,2.118335723876953,1.2582134008407593,2.6673710346221924,-3.872387647628784,false
216608.34360575,-0.8218157291412354,-0.4118167757987976,2.498652458190918,1.479995608329773,1.9331210851669312,-3.8495421409606934,false
216608.35356475002,-0.5103910565376282,-0.6583069562911987,2.5524191856384277,1.2020982503890991,0.806361198425293,-3.748501777648926,false
216608.36352275,0.04005196690559387,-0.860462486743927,2.252140522003174,0.935142993927002,0.6678671836853027,-3.6402599811553955,false
216608.37348175002,0.3662072420120239,-0.9780927896499634,2.0926434993743896,0.7247016429901123,1.4718680381774902,-3.414515972137451,false
216608.38344075,0.019488930702209473,-1.0978808403015137,1.9320415258407593,0.30104199051856995,2.658963680267334,-2.8630332946777344,false
216608.39339875002,-0.3992382884025574,-1.2419801950454712,1.580076813697815,0.00840578880161047,3.951923131942749,-2.2242562770843506,false
216608.40335775,-0.5211625099182129,-1.3431906700134277,1.315332293510437,-0.3624045252799988,4.570077419281006,-1.4485175609588623,false
216608.41331575002,-0.52195143699646,-1.496264934539795,1.0458132028579712,-0.7922784090042114,4.540984630584717,-0.6445346474647522,false
216608.42327475,-0.4553876221179962,-1.6733636856079102,0.8566734790802002,-0.6908258199691772,4.5166335105896,-0.059236813336610794,false
216608.43323275002,-0.32357311248779297,-1.9418449401855469,0.7816688418388367,-1.4178563356399536,4.428070068359375,0.22009646892547607,false
216608.44319175,-0.08854186534881592,-2.2353434562683105,0.6238430142402649,-2.2492833137512207,3.799098491668701,0.5155499577522278,false
216608.45314975,0.1456465721130371,-2.1815600395202637,0.7032538056373596,-2.395784854888916,2.96217942237854,1.0033464431762695,false
216608.46310875,0.3336024880409241,-1.926624059677124,0.7372510433197021,-2.1375763416290283,2.2379086017608643,1.5452629327774048,false
216608.47306675,0.438962459564209,-1.8285176753997803,0.35324299335479736,-2.0119102001190186,1.9308979511260986,2.140226364135742,false
216608.48302575,0.36412400007247925,-1.6948082447052002,-0.13277053833007812,-1.530391812324524,1.6617357730865479,2.4835734367370605,false
216608.49298475002,0.27840742468833923,-1.3949062824249268,-0.5173217058181763,-1.4065961837768555,1.6345441341400146,2.3591201305389404,false
216608.50294275003,0.3120662569999695,-1.1723988056182861,-0.8071595430374146,-1.6229524612426758,1.727548599243164,2.1055400371551514,false
216608.51290175001,0.44178470969200134,-1.001724362373352,-0.9634630680084229,-1.4213260412216187,1.0018452405929565,1.5656298398971558,false
216608.52285975002,0.6552972793579102,-0.7407222390174866,-0.9540762901306152,-0.47297435998916626,-0.7509576082229614,1.3227076530456543,false
216608.53281875,0.8864745497703552,-0.4140428900718689,-0.8717137575149536,-0.36214983463287354,-2.4016916751861572,1.8586095571517944,false
216608.54277675002,1.3186049461364746,0.008466064929962158,-1.0007429122924805,-1.1295541524887085,-2.514326572418213,2.831639528274536,false
216608.55273575,2.013094902038574,0.678428053855896,-1.2894537448883057,-1.5191116333007812,-2.2383828163146973,3.026581287384033,false
216608.56269375002,2.325248956680298,1.4605498313903809,-1.739788293838501,-1.9382939338684082,-2.0558483600616455,2.589524507522583,false
216608.57265275,1.931887149810791,1.8245975971221924,-2.295055389404297,-2.1107888221740723,-2.079408884048462,2.2041101455688477,false
216608.58261175003,1.6070951223373413,1.8879261016845703,-2.428307056427002,-2.5727334022521973,-2.6719565391540527,2.198430299758911,false
216608.59256975,1.9094877243041992,2.136500120162964,-2.160109758377075,-2.905169725418091,-3.6128976345062256,1.815321683883667,false
216608.60252875002,2.257504463195801,2.4942359924316406,-1.7638739347457886,-2.8307254314422607,-4.289327144622803,1.1642032861709595,false
216608.61248675,2.1561295986175537,2.5930328369140625,-1.2493088245391846,-2.6780953407287598,-4.7895426750183105,0.7091817855834961,false
216608.62244575002,1.79694402217865,2.5465071201324463,-0.863176703453064,-2.3921139240264893,-4.901233196258545,0.2858228087425232,false
216608.63240375,1.4906753301620483,2.573467254638672,-0.45596349239349365,-1.7322630882263184,-4.703283309936523,-0.26537612080574036,false
216608.64236275002,1.09182608127594,2.5910212993621826,-0.09732569009065628,-0.6767416596412659,-4.345093250274658,-0.8320227861404419,false
216608.65232075,0.601839005947113,2.3474881649017334,0.21889841556549072,0.5745822787284851,-4.293545246124268,-1.4151301383972168,false
216608.66227975002,0.15158212184906006,1.8057870864868164,0.6212471723556519,1.232534408569336,-3.907810688018799,-1.9538090229034424,false
216608.67223875,-0.264107882976532,1.2294352054595947,1.0818322896957397,1.5540921688079834,-2.977752447128296,-2.3765439987182617,false
216608.68219675001,-0.5737197399139404,0.948345959186554,1.386336088180542,1.8485774993896484,-1.7693547010421753,-2.9224846363067627,false
216608.69215575,-0.7559149861335754,0.8785600662231445,1.5223174095153809,1.8320512771606445,-0.47922483086586,-3.332817792892456,false
216608.70211375,-0.8343362808227539,0.46002858877182007,1.6168760061264038,1.7610162496566772,0.5467761158943176,-3.4005930423736572,false
216608.71207275,-0.7254492044448853,-0.04685479402542114,1.950714111328125,1.992317795753479,0.7082332372665405,-3.44731068611145,false
216608.72203075,-0.43973904848098755,-0.4061141610145569,2.379805088043213,2.2180025577545166,0.6210940480232239,-3.598966598510742,false
216608.73198975003,-0.1727164387702942,-0.7731634378433228,2.6693081855773926,2.082301139831543,0.9862799644470215,-3.794677257537842,false
216608.74194775,-0.123768150806427,-1.1586759090423584,2.738081216812134,1.9011062383651733,1.850183129310608,-3.6020443439483643,false
216608.75190675003,-0.3142370283603668,-1.4403834342956543,2.6720786094665527,1.8478385210037231,2.586427688598633,-3.1683332920074463,false
216608.76186475,-0.5426990985870361,-1.6506831645965576,2.603532314300537,1.3890835046768188,3.414215564727783,-2.65535306930542,false
216608.77182375002,-0.6221652030944824,-1.899156093597412,2.3924200534820557,0.1445385217666626,4.260641098022461,-1.9353652000427246,false
216608.78178275,-0.5812575817108154,-2.100855827331543,1.9776157140731812,-1.396766185760498,4.743204116821289,-1.1069774627685547,false
216608.79174075002,-0.41015195846557617,-2.1436986923217773,1.6018311977386475,-1.9574393033981323,4.776950359344482,-0.43924298882484436,false
216608.80169975,-0.2792122960090637,-2.163463592529297,1.4264516830444336,-1.95917809009552,4.866233825683594,0.29813331365585327,false
216608.81165775002,-0.18604347109794617,-2.297122001647949,1.24509596824646,-1.851062297821045,4.961889266967773,0.7068119049072266,false
216608.82161675,-0.046297281980514526,-2.425999402999878,0.956153154373169,-1.947089433670044,4.947737216949463,1.1351126432418823,false
216608.83157475002,0.12382510304450989,-2.3701767921447754,0.6744513511657715,-2.0781021118164062,4.6212544441223145,1.6027005910873413,false
216608.84153375,0.33234119415283203,-2.1169958114624023,0.4530397653579712,-1.850383996963501,3.9604790210723877,1.8806240558624268,false
216608.85149275002,0.4928969740867615,-1.8144339323043823,0.2858424186706543,-1.5017200708389282,3.1301300525665283,2.2893781661987305,false
216608.86145075,0.5399706363677979,-1.60672128200531,-0.03798043727874756,-1.1605006456375122,2.6122324466705322,2.4895927906036377,false
216608.87140975002,0.569448709487915,-1.434621810913086,-0.5204883813858032,-0.7275502681732178,2.2228786945343018,2.4841384887695312,false
216608.88136775,0.4901215434074402,-1.2533316612243652,-0.8654474020004272,-0.5471014380455017,1.5575714111328125,2.070430040359497,false
216608.89132675002,0.3946017920970917,-1.0644419193267822,-0.9770904779434204,-0.7917059659957886,0.8143891096115112,1.4108870029449463,false
216608.90128475003,0.4941871166229248,-0.8270069360733032,-0.9992351531982422,-1.592501163482666,-0.25217124819755554,1.414851427078247,false
216608.91124375002,0.7473649978637695,-0.44976502656936646,-1.089586615562439,-1.645266056060791,-1.173633337020874,1.7338848114013672,false
216608.92120175002,1.0139050483703613,0.044111788272857666,-1.1680819988250732,-1.3040714263916016,-1.7146449089050293,1.9056792259216309,false
216608.93116075,1.215747594833374,0.48075175285339355,-1.4431052207946777,-1.4869842529296875,-1.695363163948059,1.8413581848144531,false
216608.94111975,1.4006576538085938,0.9265508055686951,-1.8759667873382568,-1.3470063209533691,-1.9734406471252441,1.8307700157165527,false
216608.95107775,1.6286154985427856,1.4342925548553467,-2.1471002101898193,-1.3985607624053955,-2.276285171508789,1.950124740600586,false
216608.96103675,1.9513883590698242,1.917379379272461,-2.283324956893921,-1.2646921873092651,-2.987398862838745,1.6911195516586304,false
216608.97099475,2.1899404525756836,2.387615919113159,-2.132944107055664,-1.4080055952072144,-3.5537161827087402,1.3391255140304565,false
216608.98095375003,2.1486356258392334,2.7689101696014404,-1.8107948303222656,-1.893369436264038,-4.080842018127441,0.9228367209434509,false
216608.99091175,2.085953950881958,3.0017035007476807,-1.5264332294464111,-2.5509302616119385,-4.461325168609619,0.37836596369743347,false
216609.00087075002,2.0568699836730957,2.983388662338257,-1.148193597793579,-3.2077016830444336,-4.559279918670654,-0.2765948176383972,false
216609.01082875,1.8930871486663818,2.8298680782318115,-0.7062945365905762,-3.1614394187927246,-4.574807167053223,-0.9293349981307983,false
216609.02078775002,1.6205159425735474,2.624537706375122,-0.3095839023590088,-2.9166154861450195,-4.323820114135742,-1.2903538942337036,false
216609.03074675,1.404099702835083,2.483098030090332,0.15706098079681396,-1.9622715711593628,-4.096105575561523,-1.641483187675476,false
216609.04070475002,1.1096372604370117,2.387317419052124,0.6578779220581055,-0.6248568296432495,-3.969759225845337,-2.172853469848633,false
216609.05066375,0.6714488863945007,2.022311210632324,1.0876494646072388,0.9990459680557251,-3.349642038345337,-2.3960816860198975,false
216609.06062175002,0.2174963355064392,1.6205756664276123,1.3801510334014893,2.646225929260254,-2.739593744277954,-2.4111649990081787,false
216609.07058075,-0.1220177412033081,1.3421536684036255,1.4948338270187378,3.3298730850219727,-2.234396457672119,-2.8562824726104736,false
216609.08053875001,-0.40819627046585083,0.889726459980011,1.6205512285232544,3.199477434158325,-1.2931278944015503,-3.178431272506714,false
216609.09049775,-0.6450020670890808,0.4155452251434326,1.905149221420288,2.6474099159240723,-0.22233270108699799,-3.396692991256714,false
216609.10045575,-0.7526631951332092,0.05833011865615845,2.2180418968200684,1.9123936891555786,0.7190441489219666,-3.3416781425476074,false
216609.11041475,-0.6815782189369202,-0.45448869466781616,2.419123649597168,1.689403772354126,1.295075535774231,-3.22403883934021,false
216609.12037375002,-0.4784114360809326,-0.9596948027610779,2.555325508117676,1.7930099964141846,1.8798761367797852,-3.2252633571624756,false
216609.13033175,-0.2865011692047119,-1.3283638954162598,2.4795823097229004,2.395764112472534,2.642374038696289,-3.0162713527679443,false
216609.14029075002,-0.23727667331695557,-1.5369908809661865,2.3680419921875,3.4160168170928955,3.197319507598877,-2.6707165241241455,false
216609.15024875003,-0.27955037355422974,-1.693233847618103,2.2398436069488525,3.879586935043335,3.382856845855713,-2.112088441848755,false
216609.16020775,-0.3045368194580078,-1.7825725078582764,2.130070924758911,3.4032719135284424,3.2018775939941406,-1.3797919750213623,false
216609.17016575002,-0.24377179145812988,-1.7900547981262207,2.014430284500122,2.706908702850342,2.867344856262207,-0.654407262802124,false
216609.18012475,-0.15461808443069458,-1.8824299573898315,1.9238965511322021,2.2556934356689453,2.634359836578369,-0.1291661411523819,false
216609.19008275002,-0.11200109124183655,-2.1248316764831543,1.8483009338378906,1.7619075775146484,2.739305257797241,0.18406078219413757,false
216609.20004175,-0.10576632618904114,-2.3546812534332275,1.656658411026001,1.152249813079834,2.9870445728302,0.2875136733055115,false
216609.21000075003,-0.06376811861991882,-2.461747169494629,1.3538269996643066,0.6217580437660217,3.2108874320983887,0.30672407150268555,false
216609.21995875,0.04489666223526001,-2.5075604915618896,1.0295956134796143,0.32554346323013306,3.4504554271698,0.38280951976776123,false
216609.22991775002,0.1712454855442047,-2.5436463356018066,0.7667033076286316,0.13011537492275238,3.56937313079834,0.8088473677635193,false
216609.23987575,0.231478750705719,-2.4578158855438232,0.4922468662261963,-0.2189169079065323,3.6701059341430664,1.3372832536697388,false
216609.24983475002,0.22814708948135376,-2.197587013244629,0.20391583442687988,-0.6536897420883179,3.582981824874878,1.5975117683410645,false
216609.25979275,0.16990458965301514,-1.9549405574798584,-0.05463623255491257,-1.5282793045043945,3.471651554107666,1.800493597984314,false
216609.26975175002,0.14176678657531738,-1.8207788467407227,-0.26782751083374023,-2.12473464012146,3.190478801727295,1.7747987508773804,false
216609.279709625,0.2123469114303589,-1.7494757175445557,-0.45867085456848145,-2.253404140472412,2.5852599143981934,1.5680855512619019,false
216609.28966862502,0.30092477798461914,-1.6890625953674316,-0.6147010326385498,-2.1313092708587646,1.3210610151290894,1.2390716075897217,false
216609.29962662503,0.42301392555236816,-1.4384844303131104,-0.8168389797210693,-1.7434256076812744,0.638033390045166,1.5412706136703491,false
216609.30958562501,0.567721426486969,-0.8984727263450623,-1.0541064739227295,-1.216429352760315,0.08178643882274628,1.7599300146102905,false
216609.319544625,0.7005916237831116,-0.26085638999938965,-1.4436808824539185,-0.4536493718624115,0.1053500846028328,1.8746271133422852,false
216609.329502625,0.6951863169670105,0.3285866379737854,-1.9056620597839355,0.22651448845863342,-0.07591930031776428,1.8557533025741577,false
216609.339461625,0.6064460873603821,0.7150710821151733,-2.343173027038574,0.47565558552742004,-0.735216498374939,1.8268382549285889,false
216609.349419625,0.7949883341789246,0.9323632717132568,-2.5851850509643555,0.41545629501342773,-1.5825681686401367,2.08402156829834,false
216609.35937862503,1.370287537574768,1.2339046001434326,-2.68472957611084,0.234669491648674,-2.4342193603515625,2.465804100036621,false
216609.369336625,1.9596755504608154,1.7244696617126465,-2.736133098602295,-0.2507483959197998,-3.156822681427002,2.425158977508545,false
216609.37929562503,2.137695550918579,2.343158006668091,-2.698786973953247,-0.959420919418335,-4.035135746002197,2.223086357116699,false
216609.389253625,2.0613322257995605,2.8301374912261963,-2.5113120079040527,-2.1733036041259766,-4.495326519012451,1.59199857711792,false
216609.39921262502,2.217684268951416,2.879988670349121,-2.143679618835449,-3.341672420501709,-4.853610515594482,0.9017826318740845,false
216609.409171625,2.449476957321167,2.7803850173950195,-1.6148896217346191,-3.5522613525390625,-4.598877429962158,0.2767443060874939,false
216609.41912962502,2.342745542526245,2.6388697624206543,-1.107401967048645,-2.848992347717285,-4.405638217926025,-0.1605725735425949,false
216609.429088625,2.1130242347717285,2.6295082569122314,-0.7227242588996887,-1.8400262594223022,-4.019279479980469,-0.453174352645874,false
216609.43904662502,1.8448200225830078,2.7095017433166504,-0.24037522077560425,-0.6761894822120667,-3.6393251419067383,-0.9374339580535889,false
216609.449005625,1.3859665393829346,2.5788636207580566,0.22158366441726685,0.2739335596561432,-3.316763162612915,-1.3648502826690674,false
216609.45896362502,0.94466632604599,2.180536985397339,0.6855581998825073,0.838916003704071,-3.205108880996704,-1.6879388093948364,false
216609.468922625,0.6398416757583618,1.7020474672317505,1.203589916229248,1.1417115926742554,-3.2832624912261963,-1.924900770187378,false
216609.478880625,0.343500018119812,1.3280174732208252,1.6619874238967896,1.1552343368530273,-3.0041089057922363,-2.2370522022247314,false
216609.488839625,-0.03713417053222656,1.0222442150115967,1.9783649444580078,0.8030819296836853,-2.14033842086792,-2.602282762527466,false
216609.49879862502,-0.42054200172424316,0.6873850226402283,2.1199865341186523,0.5883510112762451,-0.9212465882301331,-3.0461840629577637,false
216609.508756625,-0.6319156885147095,0.3394396901130676,2.2209811210632324,0.7853995561599731,0.31497806310653687,-3.350020170211792,false
216609.51871562502,-0.6512255668640137,-0.0335080623626709,2.28861927986145,1.2605386972427368,1.316546082496643,-3.5319650173187256,false
216609.52867362503,-0.5414646863937378,-0.41161292791366577,2.337273597717285,2.131549835205078,1.979885220527649,-3.551028251647949,false
216609.53863262502,-0.3946635127067566,-0.7413182258605957,2.4528920650482178,3.016418933868408,2.3766043186187744,-3.689276695251465,false
216609.54859062503,-0.2628743648529053,-1.03861665725708,2.5178327560424805,3.428908348083496,2.7246882915496826,-3.6273887157440186,false
216609.558549625,-0.19585099816322327,-1.30765962600708,2.447985887527466,3.4288008213043213,2.8689358234405518,-3.4892804622650146,false
216609.56850762502,-0.17658287286758423,-1.549469232559204,2.286060333251953,2.765605926513672,2.884643077850342,-3.316272258758545,false
216609.578466625,-0.1872914433479309,-1.7899792194366455,2.1839663982391357,1.7337406873703003,2.845539093017578,-2.891974687576294,false
216609.588425625,-0.2199276089668274,-2.0578269958496094,2.1735141277313232,0.6645702719688416,2.9239625930786133,-2.401825189590454,false
216609.598383625,-0.21635812520980835,-2.2464957237243652,2.14225697517395,-0.36724141240119934,3.302572250366211,-1.9763165712356567,false
216609.60834262503,-0.19314855337142944,-2.385777711868286,1.928092122077942,-1.1146066188812256,3.674527168273926,-1.4064949750900269,false
216609.618300625,-0.1291818618774414,-2.390373945236206,1.616316795349121,-1.2251360416412354,3.9456863403320312,-0.9626376032829285,false
216609.62825962502,-0.013996213674545288,-2.299074172973633,1.2783619165420532,-1.041785478591919,4.109231472015381,-0.6604129076004028,false
216609.638217625,0.08093428611755371,-2.2292604446411133,0.9729934334754944,-0.8039360642433167,4.176395416259766,-0.3634067475795746,false
216609.64817662502,0.15593788027763367,-2.155708074569702,0.723251461982727,-0.7650978565216064,4.182082653045654,-0.10972055792808533,false
216609.658134625,0.22793906927108765,-2.0887374877929688,0.5141696929931641,-0.8615860939025879,4.047177314758301,0.234066903591156,false
216609.66809362502,0.254734069108963,-1.999007225036621,0.401572585105896,-1.0128811597824097,3.7451770305633545,0.6996769905090332,false
216609.678052625,0.29147544503211975,-1.8798340559005737,0.3307466506958008,-1.2968852519989014,3.2413330078125,1.1884429454803467,false
216609.68801062502,0.335428386926651,-1.787989854812622,0.23740673065185547,-1.5304011106491089,2.714024782180786,1.519473910331726,false
216609.697969625,0.40437155961990356,-1.7343751192092896,0.125372052192688,-1.7245492935180664,2.212372303009033,1.788666009902954,false
216609.70792762502,0.48063409328460693,-1.651275396347046,-0.02700871229171753,-1.6992859840393066,1.701177716255188,2.0084521770477295,false
216609.717886625,0.5040926933288574,-1.480463981628418,-0.19733917713165283,-1.5235397815704346,1.2405235767364502,2.148024797439575,false
216609.727844625,0.5008703470230103,-1.2880973815917969,-0.435990571975708,-1.387186050415039,0.825319766998291,2.284057140350342,false
216609.737803625,0.5085588693618774,-1.036909580230713,-0.7253694534301758,-1.357804775238037,0.600130558013916,2.50185227394104,false
216609.747761625,0.5897145867347717,-0.6930264830589294,-1.021731972694397,-1.2475825548171997,0.49226710200309753,2.432908535003662,false
216609.757720625,0.7771573662757874,-0.28006136417388916,-1.4004484415054321,-0.7222012877464294,0.3174811899662018,2.452270984649658,false
216609.76767962502,0.8773115873336792,0.16790610551834106,-1.7501205205917358,-0.28590127825737,0.01853623241186142,2.4658308029174805,false
216609.77763762503,1.0284523963928223,0.5214707255363464,-2.1408579349517822,-0.07383828610181808,-0.5530295372009277,2.4213645458221436,false
216609.787596625,1.279123067855835,0.8116496205329895,-2.435009717941284,0.33448079228401184,-1.6058870553970337,2.492424488067627,false
216609.79755462502,1.663650393486023,1.1352076530456543,-2.5718400478363037,0.24980370700359344,-2.5520377159118652,3.120828628540039,false
216609.807513625,2.17677903175354,1.5910735130310059,-2.517953872680664,-0.45254752039909363,-3.3091068267822266,3.6656241416931152,false
216609.81747162502,2.568681001663208,2.2608776092529297,-2.3881120681762695,-1.3545072078704834,-4.2669878005981445,3.530885696411133,false
216609.827430625,2.55814266204834,2.8033905029296875,-2.2307968139648438,-2.9585964679718018,-4.922425270080566,3.0801992416381836,false
216609.83738862502,2.544703483581543,2.9163670539855957,-1.947589635848999,-4.066936016082764,-5.178333282470703,2.4667749404907227,false
216609.847347625,2.584275245666504,2.958366870880127,-1.492107629776001,-4.382795810699463,-4.994145393371582,1.654773473739624,false
216609.85730662502,2.4461934566497803,3.071315050125122,-1.1328891515731812,-3.766799211502075,-4.427169322967529,0.8566529750823975,false
216609.867264625,2.157466173171997,3.231320858001709,-0.7676976919174194,-2.650714874267578,-3.8665058612823486,0.04685336723923683,false
216609.87722362502,1.7527332305908203,3.2633395195007324,-0.36342984437942505,-1.5412992238998413,-3.1901822090148926,-0.6681121587753296,false
216609.887181625,1.3509471416473389,3.0920708179473877,0.0007793977856636047,-0.6323606371879578,-2.4439566135406494,-1.1807256937026978,false
216609.89714062502,0.9712076187133789,2.813049077987671,0.33482956886291504,0.12744396924972534,-2.0094406604766846,-1.6453194618225098,false
216609.907098625,0.6694270372390747,2.465696334838867,0.7222731113433838,0.6454693078994751,-2.0866212844848633,-2.2160112857818604,false
216609.91705762502,0.3962424397468567,1.997178316116333,1.187650203704834,0.8170921802520752,-2.447819471359253,-2.6804568767547607,false
216609.927015625,0.07083624601364136,1.510918378829956,1.6126668453216553,0.7337706089019775,-2.383279800415039,-2.7436752319335938,false
216609.93697462502,-0.24520736932754517,1.118165373802185,1.8941071033477783,0.4713757634162903,-1.8221309185028076,-3.275424003601074,false
216609.94693262503,-0.48498135805130005,0.7893306612968445,1.9897410869598389,-0.1660141497850418,-0.7809358239173889,-3.9934070110321045,false
216609.956891625,-0.6272479295730591,0.4013475179672241,1.9534653425216675,-0.23341237008571625,0.2471439689397812,-4.2440361976623535,false
216609.966850625,-0.6506536602973938,0.19365620613098145,1.9683246612548828,0.0913017988204956,1.1075035333633423,-4.356802463531494,false
216609.976808625,-0.48316627740859985,-0.1407679319381714,1.797939658164978,0.7202634811401367,1.8371812105178833,-4.382716178894043,false
216609.986767625,-0.3390330970287323,-0.4842403531074524,1.607424020767212,1.5549795627593994,2.4800384044647217,-4.324386119842529,false
216609.996725625,-0.3045509159564972,-0.7585786581039429,1.576560378074646,2.3685197830200195,2.891862154006958,-4.217612266540527,false
216610.00668462503,-0.28747108578681946,-1.0146970748901367,1.632230281829834,2.7825539112091064,2.8869004249572754,-3.9920384883880615,false
216610.016642625,-0.1951407790184021,-1.2409387826919556,1.7236974239349365,2.3310515880584717,2.219764471054077,-3.7881240844726562,false
216610.02660162502,-0.012690424919128418,-1.4407734870910645,1.762219786643982,1.2202080488204956,1.56931471824646,-3.630220651626587,false
216610.036559625,0.13887852430343628,-1.6715497970581055,1.9676918983459473,0.17873629927635193,1.1990875005722046,-3.40834379196167,false
216610.04651862502,0.20981431007385254,-1.978609323501587,2.1986351013183594,-0.7317999005317688,1.5259062051773071,-2.958400249481201,false
216610.056477625,0.18935096263885498,-2.282217502593994,2.0041513442993164,-1.306030035018921,2.212122917175293,-2.4465391635894775,false
216610.06643562502,0.08033929765224457,-2.4731509685516357,1.6003248691558838,-1.4768778085708618,2.910844326019287,-1.9356834888458252,false
216610.076394625,0.051533907651901245,-2.4507570266723633,1.1667311191558838,-1.4014222621917725,3.3897345066070557,-1.4048622846603394,false
216610.08635262502,0.13536201417446136,-2.3202579021453857,0.8230102062225342,-1.1546909809112549,3.6337828636169434,-0.9857767224311829,false
216610.096311625,0.22230802476406097,-2.3255739212036133,0.5877630114555359,-1.0417602062225342,3.6958093643188477,-0.6515350937843323,false
216610.10626962502,0.2895156145095825,-2.4573166370391846,0.4258466958999634,-1.5052818059921265,3.570343255996704,-0.41191720962524414,false
216610.116228625,0.37002336978912354,-2.5483145713806152,0.3812987208366394,-1.9401475191116333,3.1673099994659424,-0.019778205081820488,false
216610.126186625,0.4714951515197754,-2.5017075538635254,0.4089775085449219,-1.8389276266098022,2.6927859783172607,0.385262131690979,false
216610.136145625,0.5640925765037537,-2.396376132965088,0.3504769206047058,-1.525592565536499,2.3476924896240234,0.9402042031288147,false
216610.14610462502,0.5592284798622131,-2.3137588500976562,0.1530475616455078,-1.2646719217300415,2.0022294521331787,1.5358177423477173,false
216610.156062625,0.4995911121368408,-2.151035785675049,-0.055290818214416504,-1.1153632402420044,1.7163035869598389,2.0382845401763916,false
216610.16602162502,0.481916218996048,-1.973907232284546,-0.24568510055541992,-1.3517755270004272,1.6011096239089966,2.480032444000244,false
216610.17597962503,0.4508003890514374,-1.9537277221679688,-0.4041616916656494,-1.7904671430587769,1.507015347480774,3.0207059383392334,false
216610.185938625,0.42493656277656555,-1.977149486541748,-0.48191726207733154,-2.0128724575042725,1.3160121440887451,3.4788315296173096,false
216610.19589662502,0.5030710697174072,-1.876573085784912,-0.5285910367965698,-1.5921125411987305,0.7630582451820374,3.91446852684021,false
216610.205855625,0.6835437417030334,-1.6375210285186768,-0.6091678142547607,-0.7672343254089355,0.048351120203733444,4.4232096672058105,false
216610.21581362502,0.8982235789299011,-1.2831977605819702,-0.7574430704116821,0.22115634381771088,-0.3656114339828491,4.545949935913086,false
216610.225772625,1.1261991262435913,-0.8732450604438782,-1.0487691164016724,0.7535958290100098,-0.42494651675224304,4.3748931884765625,false
216610.23573162503,1.2337135076522827,-0.4282165765762329,-1.4398001432418823,0.9469165802001953,-0.5792458653450012,4.621636390686035,false
216610.245689625,1.2349512577056885,0.05529731512069702,-1.706100583076477,0.9787005186080933,-1.1031674146652222,5.08826208114624,false
216610.25564862503,1.2933837175369263,0.4411805272102356,-1.8151112794876099,1.173053503036499,-1.90212881565094,5.306700706481934,false
216610.265606625,1.6500301361083984,0.6760810613632202,-1.9451669454574585,1.385873794555664,-2.323843002319336,5.490036487579346,false
216610.27556562502,2.185455083847046,0.900129497051239,-2.109002113342285,1.3999406099319458,-2.5991029739379883,5.731801509857178,false
216610.28552379168,2.450385093688965,1.3267861604690552,-2.330159902572632,0.8911722302436829,-2.9409306049346924,5.869804859161377,false
216610.29548279167,2.486539602279663,1.8023436069488525,-2.434544563293457,-0.3554314076900482,-3.4641971588134766,5.823184967041016,false
216610.30544079168,2.631927967071533,1.9273898601531982,-2.254267930984497,-2.1212801933288574,-4.042323589324951,5.634621620178223,false
216610.31539979167,2.7748875617980957,1.8629766702651978,-1.8269292116165161,-3.852487564086914,-4.524842739105225,5.168299674987793,false
216610.32535779168,2.782054901123047,1.8328335285186768,-1.4518271684646606,-4.852871417999268,-4.968032360076904,4.676476001739502,false
216610.3353167917,2.83125638961792,1.994081735610962,-1.1220955848693848,-4.951954364776611,-5.404435157775879,3.963101625442505,false
216610.34527579168,2.7681057453155518,2.353799343109131,-0.770167350769043,-4.123618125915527,-5.526593208312988,3.21059250831604,false
216610.3552337917,2.1173906326293945,2.704612970352173,-0.4725314974784851,-2.716118335723877,-5.654961585998535,2.5327868461608887,false
216610.36519279168,1.2855379581451416,2.9564554691314697,-0.16974201798439026,-1.4950323104858398,-6.041532516479492,1.6764185428619385,false
216610.3751507917,0.6815013885498047,3.0417871475219727,0.24738863110542297,-0.7338230609893799,-5.939043045043945,0.6308218240737915,false
216610.38510979168,0.2298482060432434,2.9394707679748535,0.6993801593780518,-0.6026549339294434,-5.063661575317383,-0.6927132606506348,false
216610.3950677917,-0.053964078426361084,2.6841015815734863,0.8582505583763123,-0.9468842148780823,-3.9735734462738037,-2.0589072704315186,false
216610.40502679168,-0.17264896631240845,2.2216036319732666,0.8376617431640625,-1.1412791013717651,-2.9667632579803467,-3.191988229751587,false
216610.41498479169,-0.14306354522705078,1.7448482513427734,0.9098976850509644,-1.016800045967102,-2.0109832286834717,-3.8375046253204346,false
216610.42494379167,0.02203446626663208,1.372157096862793,0.9484674334526062,-0.7371243834495544,-1.294769048690796,-4.261666774749756,false
216610.4349027917,0.2066980004310608,1.1427643299102783,0.9954755306243896,-0.420242577791214,-0.837234377861023,-4.5057902336120605,false
216610.44486079167,0.3304031491279602,0.9852091670036316,1.167707920074463,-0.10730735957622528,-0.7084873914718628,-4.671599864959717,false
216610.4548197917,0.4180246591567993,0.7755212187767029,1.3764241933822632,0.09054712951183319,-0.6641236543655396,-4.879226207733154,false
216610.46477779167,0.48639583587646484,0.5523756742477417,1.5331943035125732,0.31350815296173096,-0.6167605519294739,-4.976062297821045,false
216610.4747367917,0.5102817416191101,0.3481287956237793,1.613742470741272,0.5144210457801819,-0.5898383855819702,-5.093817710876465,false
216610.48469479167,0.5329575538635254,0.1451004147529602,1.6235897541046143,0.5999625325202942,-0.5127060413360596,-5.065005302429199,false
216610.49465379168,0.5721765160560608,-0.019851386547088623,1.6078696250915527,0.7042232155799866,-0.25710833072662354,-5.008279800415039,false
216610.5046117917,0.6062788963317871,-0.12106180191040039,1.5760676860809326,1.0227247476577759,0.06404093652963638,-4.99628210067749,false
216610.51457079168,0.6163729429244995,-0.20280277729034424,1.5692157745361328,1.4765127897262573,0.3535561263561249,-4.889909267425537,false
216610.52452979167,0.6893610954284668,-0.29100698232650757,1.6780450344085693,1.831415057182312,0.5170037746429443,-4.993602752685547,false
216610.53448779168,0.92806476354599,-0.3646097183227539,1.8351569175720215,1.944913625717163,0.6807003021240234,-5.092877388000488,false
216610.54444679167,1.2179940938949585,-0.4254760146141052,1.969480276107788,1.7495639324188232,0.9232468605041504,-4.9766974449157715,false
216610.55440479168,1.3099195957183838,-0.508373498916626,1.9584684371948242,1.0872597694396973,1.5690234899520874,-4.720346927642822,false
216610.56436379167,0.9973597526550293,-0.5787264108657837,1.6771814823150635,0.004336812067776918,2.488365411758423,-4.517930030822754,false
216610.57432179168,0.5083129405975342,-0.5633044838905334,1.2495181560516357,-1.0246628522872925,3.429595470428467,-4.4940690994262695,false
216610.5842807917,0.22034025192260742,-0.5264564156532288,0.9626734256744385,-1.757462978363037,4.066641807556152,-4.350794792175293,false
216610.59423879167,0.15100693702697754,-0.5429864525794983,0.8624715805053711,-2.153529405593872,4.2372612953186035,-4.155136585235596,false
216610.6041977917,0.3465709686279297,-0.4854698181152344,0.8648247718811035,-1.928948163986206,4.362526893615723,-4.009964942932129,false
216610.61415579167,0.6520206928253174,-0.31793540716171265,0.8712639808654785,-0.9962252378463745,4.6153764724731445,-3.9498353004455566,false
216610.6241147917,0.7725408673286438,-0.23689168691635132,0.8315165638923645,0.29806244373321533,4.827786445617676,-4.050036907196045,false
216610.63407379168,0.7719396948814392,-0.24347138404846191,0.7534343004226685,1.6005560159683228,4.896435260772705,-4.09163236618042,false
216610.6440317917,0.8079309463500977,-0.21730256080627441,0.7371144890785217,2.6833508014678955,4.839026927947998,-4.056425094604492,false
216610.65399079167,0.9025939106941223,-0.1649823784828186,0.7730995416641235,3.3591177463531494,4.728124141693115,-4.0294575691223145,false
216610.66394879168,0.9726473689079285,-0.15210074186325073,0.8389098048210144,3.5252912044525146,4.589838027954102,-3.844534158706665,false
216610.67390779167,0.9985659122467041,-0.14956331253051758,0.9336950778961182,3.4417269229888916,4.51018762588501,-3.601609706878662,false
216610.68386579168,1.0641136169433594,-0.08785808086395264,1.0090035200119019,3.3078157901763916,4.503633975982666,-3.4477691650390625,false
216610.69382479167,1.1140729188919067,-0.04306590557098389,0.9762327075004578,3.1615359783172607,4.546905994415283,-3.5005698204040527,false
216610.70378279168,1.031102180480957,-0.13009023666381836,0.8577997088432312,2.946784019470215,4.664453029632568,-3.6063430309295654,false
216610.71374179167,0.8594188690185547,-0.279718816280365,0.7181367874145508,2.7999584674835205,4.879477500915527,-3.675351619720459,false
216610.72370079168,0.710888683795929,-0.3623131513595581,0.54234379529953,2.6988461017608643,5.112599849700928,-3.73622727394104,false
216610.7336587917,0.6040463447570801,-0.37965887784957886,0.36823105812072754,2.4622983932495117,5.403023719787598,-3.686123847961426,false
216610.74361779168,0.5318907499313354,-0.31774353981018066,0.251656711101532,1.9987505674362183,5.634494304656982,-3.5879247188568115,false
216610.7535757917,0.4980681836605072,-0.18176192045211792,0.2301948070526123,1.5938999652862549,5.678022384643555,-3.386622190475464,false
216610.76353479168,0.5082816481590271,-0.078036367893219,0.29658544063568115,1.3611150979995728,5.272128105163574,-3.286694049835205,false
216610.7734927917,0.5731363296508789,-0.08669334650039673,0.3830755949020386,1.3824659585952759,4.668412685394287,-3.20954966545105,false
216610.78345179168,0.6350359916687012,-0.16537779569625854,0.4384347200393677,1.6730109453201294,4.259227752685547,-3.045003652572632,false
216610.7934097917,0.6382331848144531,-0.20300424098968506,0.4063568115234375,2.175405979156494,4.073876857757568,-2.8330867290496826,false
216610.80336879168,0.577645480632782,-0.1611262559890747,0.3048332929611206,2.8084521293640137,4.000306606292725,-2.602792263031006,false
216610.8133267917,0.4979512691497803,-0.06375670433044434,0.1973482370376587,3.1280837059020996,3.96934175491333,-2.3530452251434326,false
216610.82328579167,0.4711337089538574,0.05723196268081665,0.05615454912185669,3.1197712421417236,3.931971788406372,-2.0932233333587646,false
216610.8332447917,0.49010205268859863,0.12890702486038208,-0.04464679956436157,2.754047393798828,3.888016939163208,-1.9538109302520752,false
216610.84320279167,0.5166502594947815,0.07064962387084961,-0.10008853673934937,2.233242988586426,3.856423854827881,-1.917553424835205,false
216610.8531617917,0.49884089827537537,-0.1299692988395691,-0.11191362142562866,1.6494133472442627,3.930438756942749,-1.8791104555130005,false
216610.86311979167,0.43257075548171997,-0.30837076902389526,-0.1036190390586853,1.2210191488265991,3.998932361602783,-1.7265714406967163,false
216610.8730787917,0.371612548828125,-0.3917286992073059,-0.10302793979644775,0.9449324607849121,3.8912193775177,-1.6700475215911865,false
216610.88303679167,0.318373441696167,-0.4207010269165039,-0.07449352741241455,0.795461893081665,3.665738582611084,-1.5514438152313232,false
216610.89299579168,0.26849377155303955,-0.4292232394218445,0.002907991409301758,0.9752506017684937,3.4604737758636475,-1.2965281009674072,false
216610.9029537917,0.2780383229255676,-0.4475098252296448,-0.004291176795959473,1.277738094329834,3.202674388885498,-1.078032374382019,false
216610.91291279168,0.3226918876171112,-0.45313262939453125,-0.062423527240753174,1.3961409330368042,2.852813959121704,-0.6989396214485168,false
216610.9228707917,0.34877365827560425,-0.32757437229156494,-0.11371499300003052,1.4325653314590454,2.483419895172119,-0.32574716210365295,false
216610.93282979168,0.362674742937088,-0.1449539065361023,-0.1289893388748169,1.4785239696502686,2.1804587841033936,-0.02819775603711605,false
216610.94278879167,0.3624263405799866,-0.1495712399482727,-0.1279315948486328,1.3985686302185059,1.9707810878753662,0.1435319483280182,false
216610.95274679168,0.35202428698539734,-0.3009825348854065,-0.11224251985549927,1.2349553108215332,1.8320338726043701,0.2714507579803467,false
216610.96270579167,0.33355027437210083,-0.36274170875549316,-0.09769010543823242,1.0943992137908936,1.8223962783813477,0.331145703792572,false
216610.97266379168,0.3176504969596863,-0.3828970789909363,-0.11649352312088013,0.9676253795623779,1.9426885843276978,0.3623417019844055,false
216610.9826227917,0.3086652457714081,-0.4040268659591675,-0.13609051704406738,1.011185884475708,2.065300703048706,0.40344664454460144,false
216610.99258079167,0.34054800868034363,-0.3152075409889221,-0.16687792539596558,1.5344868898391724,1.9649568796157837,0.47183290123939514,false
216611.0025397917,0.4184916615486145,-0.16672849655151367,-0.1800275444984436,2.2586586475372314,1.7232369184494019,0.4361468255519867,false
216611.01249779167,0.47622445225715637,-0.06568700075149536,-0.17337721586227417,2.784731388092041,1.521730661392212,0.3620414435863495,false
216611.0224567917,0.5046148896217346,0.08506432175636292,-0.1697569489479065,3.1460325717926025,1.3283113241195679,0.2576832175254822,false
216611.03241579168,0.5070735812187195,0.22274425625801086,-0.14042377471923828,3.173391103744507,1.1170611381530762,0.1227794736623764,false
216611.0423737917,0.5184007883071899,0.1439114212989807,-0.08218628168106079,3.101384162902832,0.8815559148788452,-0.03331012278795242,false
216611.05233279167,0.5111167430877686,0.020119071006774902,-0.01423710584640503,2.924846887588501,0.6980183124542236,-0.2194930613040924,false
216611.06229079168,0.48270684480667114,-0.0012986958026885986,0.010288238525390625,2.891507863998413,0.49721547961235046,-0.4935070872306824,false
216611.07224979167,0.439801424741745,-0.024384111166000366,-0.028607845306396484,2.759483575820923,0.3899473547935486,-0.736213207244873,false
216611.08220779168,0.3956747353076935,-0.09933850169181824,-0.07733154296875,2.4745023250579834,0.3040370047092438,-0.9120640754699707,false
216611.09216679167,0.3487873077392578,-0.14520558714866638,-0.16157859563827515,2.3140695095062256,0.19350466132164001,-1.004637598991394,false
216611.10212479168,0.3026857376098633,-0.16228902339935303,-0.17574411630630493,2.2069191932678223,0.11176571249961853,-1.053237795829773,false
216611.11208379167,0.28075098991394043,-0.17396581172943115,-0.18206262588500977,2.3343076705932617,0.07510703802108765,-0.9492086172103882,false
216611.12204179168,0.27803295850753784,-0.10748428106307983,-0.14823871850967407,3.00351619720459,-0.1858798861503601,-0.6207591891288757,false
216611.13200079167,0.316771537065506,-0.085601806640625,0.010176122188568115,3.7863616943359375,-0.7240208387374878,-0.8021771907806396,false
216611.14195979168,0.4362245202064514,-0.18716131150722504,0.19523167610168457,3.493762969970703,-0.8848008513450623,-1.0321805477142334,false
216611.1519177917,0.4819627106189728,-0.18408125638961792,0.05273407697677612,3.281627655029297,-0.9411981105804443,-1.1973750591278076,false
216611.16187679168,0.4173920154571533,-0.21639853715896606,0.007145047187805176,2.9759128093719482,-0.7870408296585083,-1.1888401508331299,false
216611.1718347917,0.3668476343154907,-0.35482510924339294,0.016498327255249023,2.7468960285186768,-0.7316526174545288,-0.9683898091316223,false
216611.18179379168,0.3588280975818634,-0.22562238574028015,-0.13285112380981445,2.8157405853271484,-0.795081377029419,-0.7475090622901917,false
216611.1917517917,0.34286147356033325,0.13083556294441223,-0.1616690754890442,3.01619815826416,-1.212368369102478,-0.6993237137794495,false
216611.20171079168,0.3226572275161743,0.3867902457714081,-0.1398065686225891,3.321603536605835,-1.0976918935775757,-0.7549588680267334,false
216611.2116687917,0.28506365418434143,0.4101676940917969,-0.04059964418411255,2.9247703552246094,-1.202040672302246,-0.9583383202552795,false
216611.22162779167,0.21877524256706238,0.22570395469665527,-0.04823637008666992,2.180325984954834,-1.523707389831543,-0.33236080408096313,false
216611.23158579168,0.13743537664413452,0.12443684041500092,0.0797303318977356,2.254737138748169,-2.1802713871002197,-0.931536853313446,false
216611.24154479167,0.1857912838459015,0.22142261266708374,0.11664575338363647,2.580652952194214,-2.389080762863159,-1.1756423711776733,false
216611.2515037917,0.1517713963985443,0.28022637963294983,0.002360045909881592,2.778623580932617,-1.9216505289077759,-1.8310236930847168,false
216611.26146179167,0.19963163137435913,0.2556704580783844,-0.13355505466461182,3.250946283340454,-0.9018383622169495,-1.9210199117660522,false
216611.2714207917,0.1822337806224823,0.611065149307251,-0.21413451433181763,4.187162399291992,-0.3512468934059143,-2.387561321258545,false
216611.28137879167,-0.009993970394134521,0.7219517827033997,-0.22105532884597778,3.212502956390381,-0.6170598864555359,-2.5263123512268066,false
216611.2913381667,0.09671291708946228,0.6613761782646179,-0.3000152111053467,2.1115052700042725,-1.502509355545044,-2.0360031127929688,false
216611.30129616667,0.47660577297210693,0.5157716274261475,-0.07562178373336792,1.4995315074920654,-2.5193305015563965,-2.2199394702911377,false
216611.31125516669,0.9866385459899902,0.2319488376379013,0.11976015567779541,1.3620167970657349,-2.739663600921631,-2.776923179626465,false
216611.32121316667,0.88517165184021,0.09775650501251221,0.23127055168151855,1.3223316669464111,-2.477630138397217,-2.887068271636963,false
216611.33117216668,0.5476997494697571,0.12980546057224274,0.1721554398536682,1.4808709621429443,-2.15189528465271,-2.6798479557037354,false
216611.3411301667,0.2879747152328491,0.21464747190475464,0.06294101476669312,1.6754827499389648,-1.883399248123169,-2.3697943687438965,false
216611.35108916668,0.1267450898885727,0.2383309006690979,0.07431036233901978,1.8009229898452759,-1.6836915016174316,-2.217111349105835,false
216611.36104816667,0.08261984586715698,0.17959605157375336,0.09837090969085693,1.7332141399383545,-1.6889854669570923,-2.340762138366699,false
216611.37100616668,0.12162968516349792,0.05986589193344116,0.1434077024459839,1.5830153226852417,-1.7933145761489868,-2.480482578277588,false
216611.38096516667,0.1746014952659607,-0.1362917721271515,0.18755435943603516,1.2951700687408447,-1.8010915517807007,-2.501960277557373,false
216611.39092316668,0.22022563219070435,-0.3534221947193146,0.21253442764282227,0.839099109172821,-1.5154646635055542,-2.399115800857544,false
216611.4008821667,0.22256356477737427,-0.4565322995185852,0.1927698254585266,0.37380772829055786,-1.207632303237915,-2.216269016265869,false
216611.41084016667,0.18069949746131897,-0.3781951665878296,0.17610061168670654,0.2863743007183075,-1.1111528873443604,-1.955941081047058,false
216611.4207991667,0.15732792019844055,-0.21136416494846344,0.25260764360427856,0.4723323583602905,-1.1974234580993652,-1.7693111896514893,false
216611.43075716667,0.18678413331508636,-0.13804541528224945,0.26940739154815674,0.6597153544425964,-1.300004482269287,-1.734060525894165,false
216611.4407161667,0.2140003889799118,-0.19008859992027283,0.2708538770675659,0.7324624061584473,-1.2593351602554321,-1.7988451719284058,false
216611.45067416667,0.2030440866947174,-0.29827702045440674,0.25720757246017456,0.7412923574447632,-1.0676418542861938,-1.8202614784240723,false
216611.4606331667,0.17326515913009644,-0.37875938415527344,0.23072099685668945,0.6168418526649475,-0.8982319831848145,-1.725234031677246,false
216611.47059216668,0.15450148284435272,-0.3737475275993347,0.15414506196975708,0.5062207579612732,-0.8706784248352051,-1.5212782621383667,false
216611.48055016669,0.16792818903923035,-0.30395758152008057,0.1381591558456421,0.3723193407058716,-0.9169591665267944,-1.3202190399169922,false
216611.49050916667,0.19755668938159943,-0.2633867859840393,0.14371144771575928,0.2456519603729248,-0.9690790772438049,-1.1960792541503906,false
216611.50046716668,0.19766610860824585,-0.2609553933143616,0.137939453125,0.1417524516582489,-1.0013608932495117,-1.1259007453918457,false
216611.51042616667,0.13622723519802094,-0.2936224937438965,0.14999622106552124,0.03302544727921486,-0.9727219939231873,-1.1031800508499146,false
216611.52038416668,0.047351986169815063,-0.3538476526737213,0.159282386302948,-0.18225105106830597,-0.8342249989509583,-1.1085753440856934,false
216611.53034316667,-0.0324702225625515,-0.3871009945869446,0.13146251440048218,-0.2593657970428467,-0.6968889832496643,-1.0381622314453125,false
216611.54030116668,-0.08134278655052185,-0.33375924825668335,0.10763430595397949,-0.15791055560112,-0.6838589310646057,-0.8896449208259583,false
216611.55026016667,-0.09799958765506744,-0.2424844205379486,0.0951041579246521,0.011783143505454063,-0.7625473737716675,-0.7362233996391296,false
216611.56021816668,-0.0893322303891182,-0.15503458678722382,0.10190540552139282,0.16674916446208954,-0.7857303023338318,-0.5540303587913513,false
216611.5701771667,-0.08896981179714203,-0.09004749357700348,0.11487281322479248,0.18569248914718628,-0.6669312119483948,-0.41412779688835144,false
216611.58013616668,-0.10535313189029694,-0.08366695046424866,0.1068047285079956,0.08682609349489212,-0.5104499459266663,-0.3492890000343323,false
216611.5900941667,-0.12669609487056732,-0.11208024621009827,0.10305541753768921,-0.02683895081281662,-0.39829811453819275,-0.2949464023113251,false
216611.60005316668,-0.12799352407455444,-0.14210031926631927,0.12657779455184937,-0.1856144815683365,-0.37000977993011475,-0.307724267244339,false
216611.6100111667,-0.08125188946723938,-0.15981730818748474,0.11067330837249756,-0.2820371687412262,-0.4402506649494171,-0.3321901857852936,false
216611.61997016668,-0.009731816127896309,-0.12600931525230408,0.10010087490081787,-0.320385605096817,-0.5514011383056641,-0.3283555209636688,false
216611.6299281667,0.039128560572862625,-0.07832647860050201,0.11655616760253906,-0.37606459856033325,-0.5806633830070496,-0.31347164511680603,false
216611.63988716668,0.050486598163843155,-0.0712161511182785,0.12133032083511353,-0.45805439352989197,-0.5627386569976807,-0.3115599751472473,false
216611.64984516668,0.02092009037733078,-0.08698002994060516,0.1422867774963379,-0.5078635215759277,-0.5087398290634155,-0.30762648582458496,false
216611.65980416667,-0.009458735585212708,-0.10867305099964142,0.16941529512405396,-0.4754238724708557,-0.44581764936447144,-0.2779705822467804,false
216611.66976216668,-0.01270253211259842,-0.11175614595413208,0.1570771336555481,-0.3321916162967682,-0.4082833230495453,-0.2139069139957428,false
216611.67972116667,0.007886633276939392,-0.06867372989654541,0.11050772666931152,-0.124317966401577,-0.3894723057746887,-0.14043617248535156,false
216611.6896801667,0.034297797828912735,-0.007774189114570618,0.07370084524154663,0.020439747720956802,-0.33827275037765503,-0.08360831439495087,false
216611.69963816667,0.05270427092909813,0.033951833844184875,0.03660303354263306,0.04596973955631256,-0.2639744281768799,-0.05546240136027336,false
216611.7095971667,0.050124697387218475,0.05369730293750763,0.017910778522491455,-0.023392554372549057,-0.1931505799293518,-0.04155803471803665,false
216611.71955516667,0.025171399116516113,0.031430140137672424,0.03749746084213257,-0.1613014191389084,-0.10931321233510971,-0.04523133486509323,false
216611.72951416668,-0.010347753763198853,-0.036683470010757446,0.05501598119735718,-0.2560598850250244,-0.06554469466209412,-0.09712222218513489,false
216611.7394721667,-0.03375205397605896,-0.0954933911561966,0.07156354188919067,-0.25980648398399353,-0.09312418103218079,-0.18537890911102295,false
216611.74943116668,-0.03613320738077164,-0.10994936525821686,0.09146249294281006,-0.274003267288208,-0.15284903347492218,-0.2619743347167969,false
216611.7593891667,-0.011487245559692383,-0.07521602511405945,0.09076112508773804,-0.1694689393043518,-0.21062904596328735,-0.2447717785835266,false
216611.76934816668,0.022559449076652527,-0.005464732646942139,0.0683603286743164,0.015600784681737423,-0.21713967621326447,-0.17399001121520996,false
216611.7793061667,0.040586091578006744,0.054520219564437866,0.0363883376121521,0.13584397733211517,-0.16688595712184906,-0.07904741913080215,false
216611.78926516668,0.029935963451862335,0.07976406812667847,0.011767745018005371,0.1666729897260666,-0.008185259997844696,0.02405393123626709,false
216611.7992241667,-0.005042016506195068,0.059676945209503174,0.006341218948364258,0.07175599783658981,0.19697101414203644,0.04945417866110802,false
216611.80918216667,-0.03330444544553757,-0.004740089178085327,-0.019505739212036133,-0.0108730997890234,0.33290594816207886,0.02202495187520981,false
216611.8191411667,-0.04740637540817261,-0.062105536460876465,-0.014049768447875977,-0.11569405347108841,0.3713958263397217,0.0028138402849435806,false
216611.82909916667,-0.03799792006611824,-0.09698335826396942,-0.005498766899108887,-0.11625491827726364,0.26875919103622437,-0.02961680293083191,false
216611.8390581667,-0.0072479695081710815,-0.11392048001289368,0.0147208571434021,-0.08514626324176788,0.11856675893068314,-0.08943053334951401,false
216611.84901616667,0.022154834121465683,-0.1287698596715927,0.051981985569000244,-0.07288480550050735,-0.0013399370945990086,-0.14017067849636078,false
216611.8589751667,0.05407489836215973,-0.11225703358650208,0.062038540840148926,0.0008794961031526327,-0.06617186218500137,-0.088463693857193,false
216611.86893316667,0.07777571678161621,-0.04967857897281647,0.04593914747238159,0.09068901091814041,-0.06315290182828903,0.07590314745903015,false
216611.8788921667,0.0836387351155281,0.008830830454826355,0.010686814785003662,0.14519140124320984,-0.0067868344485759735,0.24770352244377136,false
216611.88885016667,0.07399158179759979,0.03516946732997894,-0.023420214653015137,0.13984191417694092,0.12365905940532684,0.3453235626220703,false
216611.89880916668,0.058425307273864746,0.020503148436546326,-0.04893976449966431,0.06940236687660217,0.23082146048545837,0.3449432849884033,false
216611.9087671667,0.048902906477451324,-0.0192510187625885,-0.06769680976867676,0.0013503432273864746,0.2477666288614273,0.3127307593822479,false
216611.91872616668,0.051326047629117966,-0.0435045063495636,-0.05226421356201172,-0.06466428935527802,0.2087915986776352,0.295154869556427,false
216611.92868516667,0.06074661761522293,-0.0506819486618042,-0.024541795253753662,-0.08109493553638458,0.15461944043636322,0.27413585782051086,false
216611.93864316668,0.06416918337345123,-0.043927013874053955,0.008542478084564209,-0.07969550788402557,0.13493435084819794,0.2564043402671814,false
216611.94860216667,0.054098185151815414,-0.030268162488937378,0.03184378147125244,-0.05235655978322029,0.14272622764110565,0.25783205032348633,false
216611.95856016668,0.0455065593123436,-0.0029746294021606445,0.04633384943008423,0.014175460673868656,0.14300839602947235,0.28078535199165344,false
216611.9685191667,0.045224856585264206,0.029397979378700256,0.046054959297180176,0.07573336362838745,0.14131781458854675,0.28970614075660706,false
216611.97847716667,0.05005026236176491,0.05230604112148285,0.043985068798065186,0.10251637548208237,0.1743169128894806,0.2967917323112488,false
216611.9884361667,0.05551031976938248,0.058871254324913025,0.03607213497161865,0.11607106775045395,0.227244570851326,0.2775546610355377,false
216611.99839416667,0.057846762239933014,0.05459365248680115,0.011868476867675781,0.09564229100942612,0.29883307218551636,0.2627529203891754,false
216612.0083531667,0.051778703927993774,0.04859086871147156,0.003893911838531494,0.010178256779909134,0.3421696126461029,0.23766592144966125,false
216612.01831216668,0.04536174610257149,0.03433886170387268,0.006092846393585205,-0.04469318315386772,0.3738674223423004,0.20809704065322876,false
216612.0282701667,0.040284547954797745,0.013770446181297302,0.02126336097717285,-0.04219620302319527,0.3866492807865143,0.19107171893119812,false
216612.03822916668,0.03274930641055107,-0.004986032843589783,0.026488900184631348,-0.013471480458974838,0.38797539472579956,0.17591024935245514,false
216612.04818716669,0.02098982036113739,0.00263310968875885,0.030916452407836914,0.04596121981739998,0.3833761215209961,0.18575115501880646,false
216612.05814616667,0.003900514915585518,0.027261704206466675,0.03505438566207886,0.08571895211935043,0.41901448369026184,0.2052118182182312,false
216612.06810416668,-0.016364065930247307,0.03418967127799988,0.026841402053833008,0.08152980357408524,0.48118382692337036,0.20889177918434143,false
216612.07806316667,-0.035510141402482986,0.02119550108909607,0.01569366455078125,0.0724337100982666,0.532991349697113,0.21764779090881348,false
216612.08802116668,-0.04381600022315979,0.026010915637016296,0.00722426176071167,0.055652596056461334,0.5302727818489075,0.23459188640117645,false
216612.09798016667,-0.03406373783946037,0.043146535754203796,0.0017417669296264648,0.03664128854870796,0.5175014734268188,0.2309068888425827,false
216612.10793816668,-0.020103195682168007,0.04688003659248352,0.001365363597869873,-0.002831552177667618,0.5210570693016052,0.18438519537448883,false
216612.11789716667,-0.012808440253138542,0.03433382511138916,-0.0064015984535217285,-0.03840279579162598,0.5126492977142334,0.1259768009185791,false
216612.12785516668,-0.016244016587734222,0.030843809247016907,-0.014466583728790283,-0.041105903685092926,0.5157952904701233,0.09669321775436401,false
216612.1378141667,-0.03505817800760269,0.0382583886384964,-0.021559596061706543,-0.02268095687031746,0.5312417149543762,0.06430667638778687,false
216612.14777316668,-0.057695917785167694,0.04068802297115326,-0.028224170207977295,-0.016469666734337807,0.5553449392318726,0.03962317109107971,false
216612.1577311667,-0.07798659801483154,0.04737021028995514,-0.027261793613433838,0.0048301625065505505,0.5757073163986206,0.045075491070747375,false
216612.16769016668,-0.08701755106449127,0.06256923079490662,-0.02179861068725586,0.0439075231552124,0.587405800819397,0.0728682428598404,false
216612.1776481667,-0.08080209791660309,0.07329156994819641,-0.026480436325073242,0.07444113492965698,0.5944138765335083,0.10184977203607559,false
216612.18760716668,-0.06671149283647537,0.07943907380104065,-0.0327109694480896,0.09434080123901367,0.6166880130767822,0.11764684319496155,false
216612.1975651667,-0.053568825125694275,0.08453182876110077,-0.03193110227584839,0.06521493941545486,0.6540226340293884,0.11485950648784637,false
216612.20752416668,-0.03811177611351013,0.07164058089256287,-0.05207914113998413,0.05604168400168419,0.6383877396583557,0.07098951935768127,false
216612.21748216668,-0.023617077618837357,0.05459599196910858,-0.06066936254501343,0.047612514346838,0.5726548433303833,0.006857467815279961,false
216612.22744116667,-0.015863358974456787,0.03345674276351929,-0.0439109206199646,-0.010408977046608925,0.5141342878341675,-0.04873335734009743,false
216612.23739916668,-0.012416653335094452,0.011376738548278809,-0.03386640548706055,-0.0590825080871582,0.4863724112510681,-0.06143776699900627,false
216612.24735816667,-0.018146604299545288,0.006950020790100098,-0.028736472129821777,-0.06558994203805923,0.4968239963054657,-0.025109320878982544,false
216612.2573171667,-0.02779000997543335,0.019082054495811462,-0.03016984462738037,-0.028991250321269035,0.5430111289024353,0.04047023877501488,false
216612.26727516667,-0.041110359132289886,0.04312008619308472,-0.043982625007629395,0.03270859643816948,0.6097259521484375,0.09969814121723175,false
216612.2772341667,-0.04939571022987366,0.061282679438591,-0.06449812650680542,0.057429857552051544,0.6685985922813416,0.12541010975837708,false
216612.2871917917,-0.05024264007806778,0.06554064154624939,-0.07132238149642944,0.04025033861398697,0.6940325498580933,0.12148754298686981,false
216612.29715079168,-0.04188867658376694,0.05125047266483307,-0.06582975387573242,0.052250273525714874,0.6298109292984009,0.03910338878631592,false
216612.3071087917,-0.027812570333480835,0.02626083791255951,-0.046151041984558105,0.011924424208700657,0.4814129173755646,-0.10815450549125671,false
216612.31706779168,-0.01025024801492691,-0.0065167248249053955,-0.0021938681602478027,-0.07532838732004166,0.30414021015167236,-0.23201481997966766,false
216612.3270257917,0.011436693370342255,-0.013950929045677185,0.03270441293716431,-0.12043647468090057,0.142213374376297,-0.2845512628555298,false
216612.33698479168,0.03229594975709915,0.011989101767539978,0.03718078136444092,-0.11675246059894562,0.04490179196000099,-0.2706267535686493,false
216612.3469427917,0.03750229626893997,0.03727854788303375,0.014554321765899658,-0.07013648748397827,0.005669170059263706,-0.23177094757556915,false
216612.35690179167,0.02245131880044937,0.0510096549987793,-0.008593738079071045,-0.0056230779737234116,0.03270311653614044,-0.19419220089912415,false
216612.36685979168,0.004027664661407471,0.05336540937423706,-0.03069627285003662,0.024397673085331917,0.08044453710317612,-0.15891677141189575,false
216612.37681879167,-0.006677992641925812,0.05413946509361267,-0.05670785903930664,0.045567937195301056,0.06331801414489746,-0.13573361933231354,false
216612.3867777917,-0.001677386462688446,0.055224254727363586,-0.06304723024368286,0.008449597284197807,0.03823396936058998,-0.1496632695198059,false
216612.39673579167,0.009185217320919037,0.029269009828567505,-0.054244399070739746,-0.041574154049158096,0.023084579035639763,-0.17436310648918152,false
216612.4066947917,0.01355791836977005,0.0017455816268920898,-0.04043823480606079,-0.001189180533401668,-0.01645670458674431,-0.20490902662277222,false
216612.41665279167,0.006698675453662872,-0.0071719735860824585,-0.009489715099334717,0.016359252855181694,-0.053344082087278366,-0.24976032972335815,false
216612.42661179168,-0.0030860304832458496,-0.01114298403263092,0.018950700759887695,0.03144552931189537,-0.08328147232532501,-0.23991276323795319,false
216612.43656979167,-0.006675265729427338,0.015019521117210388,0.045454204082489014,-0.048607297241687775,-0.07011407613754272,-0.097781240940094,false
216612.44652879168,0.0006298944354057312,0.03826037049293518,0.05731576681137085,-0.20802411437034607,-0.1282956302165985,-0.28866466879844666,false
216612.4564867917,0.018272332847118378,0.017525702714920044,0.07218700647354126,-0.2920539081096649,0.05609113350510597,-0.24410046637058258,false
216612.46644579168,-0.010944373905658722,-0.053416088223457336,0.09132742881774902,-1.1109967231750488,-0.22607798874378204,0.23516492545604706,false
216612.4764037917,-0.006258115172386169,-0.057126834988594055,0.022064387798309326,1.5686007738113403,-0.9559932351112366,-2.184417963027954,false
216612.48636279168,0.19447436928749084,0.14309892058372498,0.14246869087219238,0.49248719215393066,-1.246834397315979,-1.9342111349105835,false
216612.49632179167,0.2159876525402069,-0.1613350659608841,-0.15467500686645508,-0.38709571957588196,-1.6551541090011597,-1.1760793924331665,false
216612.50627979168,0.44030359387397766,-0.10402017831802368,0.12762469053268433,-0.37736108899116516,-1.890248417854309,-0.4139796495437622,false
216612.5162387917,0.28663310408592224,0.054703012108802795,0.2189388871192932,-0.21860499680042267,-1.7123076915740967,-0.2597320079803467,false
216612.52619679167,0.038306377828121185,-0.19979611039161682,0.07405996322631836,-0.45350804924964905,-1.1620999574661255,-0.3752434253692627,false
216612.5361557917,-0.10211777687072754,-0.1259438842535019,0.07205039262771606,-0.6579400300979614,-0.7985497713088989,-0.42792361974716187,false
216612.54611379167,-0.16067446768283844,-0.024634182453155518,0.06194770336151123,-0.8985598087310791,-0.618023157119751,-0.34478771686553955,false
216612.5560727917,-0.09363692253828049,-0.06916186213493347,0.05239790678024292,-0.9391505122184753,-0.5320287346839905,-0.03075600415468216,false
216612.56603079167,-0.06191839277744293,-0.15867985785007477,0.03432667255401611,-0.8623287081718445,-0.4515407979488373,0.16556450724601746,false
216612.5759897917,-0.030900491401553154,-0.24085523188114166,0.02339714765548706,-0.8828304409980774,-0.4161507785320282,0.13788631558418274,false
216612.58594779167,0.02206604927778244,-0.16753344237804413,-0.0077828168869018555,-0.5259990692138672,-0.5639770030975342,0.13819417357444763,false
216612.59590679168,0.049152687191963196,0.016785725951194763,-0.021333754062652588,-0.15076781809329987,-0.6970112919807434,0.18692101538181305,false
216612.6058647917,0.09853969514369965,0.08776873350143433,-0.05235236883163452,0.3267281651496887,-1.0705630779266357,0.7453334331512451,false
216612.61582379168,0.19358360767364502,0.06937213242053986,-0.07494997978210449,0.26209598779678345,-1.0468425750732422,0.6077835559844971,false
216612.6257817917,0.37743639945983887,0.09488001465797424,-0.08001232147216797,0.11635635793209076,-0.4061850309371948,0.2681314945220947,false
216612.63574079168,0.25850024819374084,0.11116674542427063,-0.06292283535003662,0.09388939291238785,0.17438673973083496,-0.09667230397462845,false
216612.64569979167,-0.042124517261981964,0.042963504791259766,0.040827274322509766,0.3029715120792389,0.395947128534317,-0.20356999337673187,false
216612.65565779168,-0.06515701115131378,0.00936087965965271,0.030648469924926758,0.5155420303344727,0.28439387679100037,0.03285447880625725,false
216612.66561679167,0.001923062838613987,0.07453444600105286,-0.0036689043045043945,0.49796488881111145,0.24595940113067627,0.5936073064804077,false
216612.67557479168,0.06618983298540115,0.05121253430843353,0.03656351566314697,0.44945061206817627,0.2370615154504776,1.043856143951416,false
216612.6855337917,0.08984369784593582,-0.07518048584461212,0.06114470958709717,0.5010914206504822,0.368893027305603,1.1438894271850586,false
216612.69549179167,0.0797920674085617,-0.025910869240760803,0.08156293630599976,0.42261752486228943,0.5253722667694092,0.9326573610305786,false
216612.7054507917,-0.015658771619200706,0.09745559096336365,0.06711208820343018,0.23872707784175873,0.4620710611343384,0.7769604325294495,false
216612.71540879167,-0.16251498460769653,0.08583956956863403,0.07325822114944458,0.0742560476064682,0.37964028120040894,0.5465750098228455,false
216612.7253677917,-0.15004858374595642,0.010011360049247742,0.05609625577926636,-0.1655387133359909,0.32372990250587463,0.4715196192264557,false
216612.73532579167,-0.1612512767314911,-0.003356263041496277,0.02530694007873535,-0.349934846162796,0.15835990011692047,0.501220166683197,false
216612.7452847917,-0.15594694018363953,-0.016537919640541077,-0.007295370101928711,-0.2558259069919586,0.10840646922588348,0.6068424582481384,false
216612.75524379167,-0.10984683781862259,-0.0530933141708374,-0.03506457805633545,-0.1190032958984375,0.08131473511457443,0.7111023664474487,false
216612.76520179168,-0.08238226175308228,-0.05456790328025818,-0.06729501485824585,-0.013454768806695938,0.03429209068417549,0.8203050494194031,false
216612.77516079167,-0.08953378349542618,-0.03779676556587219,-0.08338719606399536,0.03829258307814598,0.45256736874580383,0.9398998618125916,false
216612.78511879168,-0.0938781350851059,0.017143473029136658,-0.09479653835296631,-0.023431502282619476,-0.010426642373204231,0.37072697281837463,false
216612.79507779167,-0.1514476090669632,0.03468593955039978,-0.08966344594955444,-0.00822991319000721,0.13503627479076385,0.3396764099597931,false
216612.80503579168,-0.25304582715034485,0.0442543625831604,-0.07048523426055908,-0.22452093660831451,0.6057678461074829,0.7448635697364807,false
216612.81499479167,-0.16155484318733215,0.07010142505168915,-0.06116795539855957,-0.15456801652908325,0.4566233158111572,0.5038446187973022,false
216612.82495279168,-0.012979123741388321,0.0013690590858459473,0.0008457303047180176,-0.2270030677318573,0.31460440158843994,0.29299893975257874,false
216612.83491179167,0.02746346965432167,-0.10361379384994507,0.004559636116027832,-0.2464122474193573,0.3517375588417053,0.04800432175397873,false
216612.84486979168,-0.004191849380731583,-0.17564448714256287,0.03908240795135498,0.04012656584382057,0.36603739857673645,-0.010545007884502411,false
216612.8548287917,-0.006657589226961136,-0.14238452911376953,0.041216373443603516,0.4242856800556183,0.2694152593612671,-0.1139533594250679,false
216612.86478679167,0.053595270961523056,-0.0019598305225372314,0.01855647563934326,0.7245659232139587,0.16915017366409302,-0.1911887526512146,false
216612.8747457917,0.1138245090842247,0.16574746370315552,0.013826191425323486,0.8862404227256775,0.14958645403385162,-0.21958208084106445,false
216612.88470479168,0.10153715312480927,0.1795407086610794,-0.0027347803115844727,0.7600619792938232,0.12134310603141785,-0.20971666276454926,false
216612.8946627917,0.05208910256624222,0.05746960639953613,-0.02507704496383667,0.40814152359962463,0.21357350051403046,-0.36548930406570435,false
216612.90462179168,0.019236266613006592,-0.018856003880500793,-0.02924370765686035,0.23987716436386108,0.2355531007051468,-0.30202430486679077,false
216612.9145797917,-0.029087170958518982,-0.04782789945602417,-0.01524585485458374,0.15146180987358093,0.1972041130065918,-0.2783282995223999,false
216612.92453879167,-0.03912297263741493,-0.07264386117458344,-0.026995360851287842,0.20482677221298218,0.15009678900241852,-0.22582009434700012,false
216612.93449679168,0.001819569617509842,-0.031952232122421265,-0.026922523975372314,0.2739168703556061,0.14908745884895325,-0.14837563037872314,false
216612.94445579167,0.006506022065877914,0.048469096422195435,-0.020871758460998535,0.3185599744319916,0.16135025024414062,-0.053420886397361755,false
216612.95441379168,0.0020262636244297028,0.08029797673225403,-0.010147273540496826,0.42803242802619934,0.08175848424434662,0.022014083340764046,false
216612.96437279167,0.005090638995170593,0.08061590790748596,0.0018587112426757812,0.5501293540000916,0.02518681064248085,0.01807020790874958,false
216612.97433079168,0.026033680886030197,0.05821874737739563,0.015641331672668457,0.5372941493988037,-0.0020171792712062597,-0.07759857922792435,false
216612.98428979167,0.04883348196744919,0.023250535130500793,0.0006524324417114258,0.4550189673900604,0.004895055666565895,-0.22766077518463135,false
216612.99424779168,0.04496665298938751,0.017599374055862427,0.0003483891487121582,0.3446028232574463,0.0524430014193058,-0.3507203459739685,false
216613.00420679167,0.014023512601852417,0.00433485209941864,6.407499313354492e-05,0.3054777979850769,0.07973161339759827,-0.3497925102710724,false
216613.01416579168,-0.021919630467891693,-0.006101563572883606,0.008117258548736572,0.32247716188430786,0.10681848973035812,-0.27457231283187866,false
216613.0241237917,-0.032163865864276886,-0.021221399307250977,0.013260245323181152,0.3362089693546295,0.10693486779928207,-0.12769311666488647,false
216613.03408279168,-0.0063482001423835754,-0.03121769428253174,-0.001987457275390625,0.29803556203842163,0.0238613560795784,0.047507394105196,false
216613.0440407917,0.04079741612076759,-0.0036310553550720215,-0.012779653072357178,0.2672712504863739,-0.026759477332234383,0.001616333145648241,false
216613.05399979168,0.09275970607995987,0.017053499817848206,-0.006798684597015381,0.16895891726016998,0.022361330687999725,-0.04081577807664871,false
216613.0639577917,0.08845564723014832,-0.011721163988113403,0.0020795464515686035,0.1631670743227005,0.01625150628387928,-0.01727929338812828,false
216613.07391679168,0.055015888065099716,-0.019303858280181885,0.017820775508880615,0.2045649141073227,0.006914796307682991,-0.028512191027402878,false
216613.0838747917,0.04652979224920273,-0.01482120156288147,0.031473755836486816,0.22035400569438934,0.010172109119594097,-0.05670255050063133,false
216613.09383379167,0.03162578120827675,-0.021055370569229126,0.029899537563323975,0.20010511577129364,0.035753034055233,-0.1331227421760559,false
216613.10379179168,0.02299359068274498,-0.032844096422195435,0.02303522825241089,0.1353873759508133,0.05680585652589798,-0.21083351969718933,false
216613.11375079167,0.020625848323106766,-0.03293633460998535,0.009907901287078857,0.16289383172988892,0.039802104234695435,-0.2619764506816864,false
216613.1237097917,0.013650979846715927,0.0010199546813964844,0.0011081099510192871,0.26071202754974365,0.049790024757385254,-0.36443278193473816,false
216613.13366779167,0.00583726167678833,0.043900877237319946,-0.0031638145446777344,0.38438206911087036,0.10406770557165146,-0.3849219083786011,false
216613.1436267917,-0.01734337955713272,0.07589787244796753,-0.01301640272140503,0.43240365386009216,0.025594476610422134,-0.35403987765312195,false
216613.15358479167,-0.03808612376451492,0.06774267554283142,-0.017978549003601074,0.30641457438468933,0.05010168254375458,0.004732048604637384,false
216613.16354379168,-0.007364645600318909,0.029931873083114624,-0.013626337051391602,0.19052472710609436,-0.023313146084547043,0.43585947155952454,false
216613.17350179167,0.057887885719537735,0.003706425428390503,0.002476513385772705,0.05212051048874855,-0.0323316752910614,0.3812682628631592,false
216613.18346079168,0.16405996680259705,-0.04183581471443176,0.015219628810882568,0.02571527101099491,0.003265733364969492,0.014605584554374218,false
216613.1934187917,0.117974191904068,-0.0266302227973938,0.015719473361968994,-0.034774038940668106,0.06971732527017593,-0.1308114379644394,false
216613.20337779168,0.02508348971605301,-0.03373068571090698,0.01842963695526123,-0.06688057631254196,0.045956872403621674,-0.08903495967388153,false
216613.2133357917,-0.02997368574142456,-0.04584503173828125,0.015454292297363281,-0.02218407765030861,0.02773485705256462,-0.05634089186787605,false
216613.22329479168,-0.030051060020923615,-0.02079257369041443,0.020851850509643555,0.03574420139193535,0.008054629899561405,-0.05601572245359421,false
216613.2332527917,-0.0020438097417354584,-0.01684984564781189,0.011563599109649658,0.08104224503040314,-0.010444419458508492,-0.004997161217033863,false
216613.24321179168,0.029123160988092422,-0.003731369972229004,0.00022846460342407227,0.12114918231964111,-0.024835344403982162,0.07321827858686447,false
216613.2531697917,0.05050988867878914,0.010708749294281006,-0.01548689603805542,0.1408505141735077,-0.07017692178487778,0.17215661704540253,false
216613.26312879167,0.060590822249650955,0.0023476481437683105,-0.03001803159713745,0.07339717447757721,-0.103129543364048,0.2474290132522583,false
216613.2730877917,0.07902006804943085,-0.038826972246170044,-0.02759450674057007,-0.06453999131917953,-0.09739263355731964,0.22694571316242218,false
216613.28304579167,0.08959124982357025,-0.07052502036094666,-0.015217483043670654,-0.15320780873298645,-0.10887378454208374,0.10432979464530945,false
216613.2930051667,0.06151847168803215,-0.04973942041397095,-0.0019133687019348145,-0.20512919127941132,-0.08594436943531036,0.07159485667943954,false
216613.30296316667,0.01882828399538994,-0.01621374487876892,0.0034762024879455566,-0.18057112395763397,-0.11246173083782196,0.08187652379274368,false
216613.3129221667,0.0014890804886817932,0.00318184494972229,0.011917471885681152,-0.14294657111167908,-0.14272169768810272,0.08718201518058777,false
216613.32288016667,0.015912000089883804,0.02014857530593872,0.010813891887664795,-0.1739814579486847,-0.15429899096488953,0.08291775733232498,false
216613.3328391667,0.04241036996245384,0.018447518348693848,0.003867805004119873,-0.21616095304489136,-0.13027946650981903,0.10108613222837448,false
216613.34279716667,0.045822326093912125,0.0038551688194274902,0.0007348060607910156,-0.3363584578037262,-0.07547295093536377,0.1288764774799347,false
216613.35275616669,0.03321082144975662,-0.021029353141784668,-0.002346336841583252,-0.524206280708313,-0.04168875887989998,0.21666257083415985,false
216613.36271416667,0.017359986901283264,-0.05922645330429077,-0.008067309856414795,-0.770548403263092,-0.07399902492761612,0.47782331705093384,false
216613.37267316668,0.022416777908802032,-0.09370461106300354,0.003482520580291748,-0.7541208267211914,-0.30610325932502747,0.14677445590496063,false
216613.3826311667,0.08051574975252151,-0.10196210443973541,0.031603217124938965,-0.979793906211853,-0.13499008119106293,-0.008036160841584206,false
216613.39259016668,0.12148575484752655,-0.08063206076622009,0.050622761249542236,-0.9290443062782288,-0.009943079203367233,-0.04305263236165047,false
216613.40254916667,-0.03503968194127083,-0.02128690481185913,0.0591086745262146,-0.6634216904640198,-0.008975818753242493,0.05517273768782616,false
216613.41250716668,-0.09621606767177582,0.04703886806964874,0.05886954069137573,-0.4266842305660248,-0.08762748539447784,0.09619593620300293,false
216613.42246616667,-0.07588410377502441,0.062489449977874756,0.025873005390167236,-0.4247089624404907,-0.08722561597824097,0.15926490724086761,false
216613.43242416668,-0.028737466782331467,0.07843254506587982,0.013476669788360596,-0.5483972430229187,-0.09100184589624405,0.1577000766992569,false
216613.4423831667,0.02624969184398651,0.050729900598526,0.01625382900238037,-0.8259894251823425,-0.09615080058574677,0.059725575149059296,false
216613.45234116667,0.048996057361364365,-0.009346038103103638,0.01802372932434082,-0.6726985573768616,-0.02873574197292328,0.18365903198719025,false
216613.4623001667,-0.005615837872028351,-0.03430992364883423,0.04104667901992798,0.5682106614112854,-0.1529540866613388,-0.5275168418884277,false
