Timestamp,AX,AY,AZ,RX,RY,RZ,Jump
93350.35280229167,0.01614294946193695,0.002678394317626953,0.09050673246383667,0.9758660197257996,0.5523642897605896,-0.4025152921676636,false
93350.36276129168,0.014824002981185913,-0.04456759989261627,0.09112107753753662,0.7112879157066345,0.4461648762226105,-0.27600207924842834,false
93350.37271929167,0.014085263013839722,-0.08988885581493378,0.09747874736785889,0.48292529582977295,0.3660852015018463,-0.1539805680513382,false
93350.38267829167,0.00998087227344513,-0.10350890457630157,0.1156158447265625,0.34254220128059387,0.3121403455734253,-0.04327979311347008,false
93350.39263729168,-0.0021331757307052612,-0.09129184484481812,0.13240844011306763,0.2608462870121002,0.1712157428264618,0.3960661292076111,false
93350.40259629168,-0.008546307682991028,-0.06027638912200928,0.15075570344924927,0.21505802869796753,0.0931217297911644,1.0186598300933838,false
93350.41255429167,0.02452242374420166,-0.02149699628353119,0.17172729969024658,0.10190270096063614,-0.06988423317670822,1.149909257888794,false
93350.42251329168,0.00043095648288726807,-0.004560887813568115,0.17662793397903442,-0.06019924581050873,0.1055215522646904,0.6064278483390808,false
93350.43247229168,0.027122914791107178,-0.02254919707775116,0.17177903652191162,-0.38716989755630493,-0.008810888044536114,0.5104230046272278,false
93350.44243029167,0.06963543593883514,-0.08316275477409363,0.16773253679275513,-0.7993161082267761,-0.17596012353897095,0.6410486102104187,false
93350.45238929168,0.06782688200473785,-0.1451890915632248,0.1765015721321106,-1.166622519493103,-0.21495254337787628,0.7516520619392395,false
93350.46234829168,0.06630080938339233,-0.17434337735176086,0.1973412036895752,-1.472193956375122,-0.2306479513645172,0.8765636086463928,false
93350.47230729167,0.041452065110206604,-0.1813170611858368,0.22153621912002563,-1.6159460544586182,-0.23595589399337769,0.9567095637321472,false
93350.48226529168,0.034099698066711426,-0.18094885349273682,0.24039995670318604,-1.5680259466171265,-0.192949578166008,1.0081835985183716,false
93350.49222429167,0.02278958261013031,-0.17458316683769226,0.25332915782928467,-1.3019157648086548,-0.032299235463142395,1.057307481765747,false
93350.50218329167,0.0094851553440094,-0.09496183693408966,0.2879031300544739,-0.7618991136550903,0.1875138282775879,1.0257396697998047,false
93350.51214229167,-0.00400426983833313,0.036877334117889404,0.3103151321411133,-0.26528429985046387,0.378037691116333,1.0054810047149658,false
93350.52210029167,-0.007423132658004761,0.11082018911838531,0.23345738649368286,-0.09172794967889786,0.4319395124912262,0.9847814440727234,false
93350.53205929167,0.039151012897491455,0.10786215960979462,0.13827186822891235,-0.38903340697288513,0.381818562746048,0.9965078830718994,false
93350.54201829167,0.10566917061805725,-0.005514040589332581,0.07198107242584229,-1.0544794797897339,0.2501367926597595,1.0869511365890503,false
93350.55197629167,0.14652223885059357,-0.1667434275150299,0.024210631847381592,-1.8057284355163574,0.10359954088926315,1.216444969177246,false
93350.56193529167,0.1623222678899765,-0.2844274640083313,0.016512751579284668,-2.308846950531006,0.025043746456503868,1.3397873640060425,false
93350.57189429167,0.16085898876190186,-0.300041139125824,0.04761183261871338,-2.5287885665893555,0.0009743641130626202,1.4307702779769897,false
93350.58185329167,0.14607739448547363,-0.23457300662994385,0.07083010673522949,-2.5449554920196533,0.01508412417024374,1.5024513006210327,false
93350.59181129167,0.1381145715713501,-0.15384480357170105,0.1037110686302185,-2.5632169246673584,0.02124321646988392,1.5822113752365112,false
93350.60177029167,0.13000832498073578,-0.12610527873039246,0.11669278144836426,-2.577906608581543,-0.01813914254307747,1.603678584098816,false
93350.61172929168,0.13024045526981354,-0.17534330487251282,0.11778301000595093,-2.4391210079193115,-0.01724405400454998,1.5866210460662842,false
93350.62168829168,0.12838304042816162,-0.24485912919044495,0.15054821968078613,-2.0804412364959717,0.14827392995357513,1.6631263494491577,false
93350.63164629167,0.11130569875240326,-0.19470873475074768,0.2294180989265442,-1.2905917167663574,0.3490491211414337,1.693194031715393,false
93350.64160529168,0.09454944729804993,-0.021572470664978027,0.28471577167510986,-0.4777163863182068,0.5157457590103149,1.7796767950057983,false
93350.65156429168,0.0870836079120636,0.08440923690795898,0.22278445959091187,-0.2964422106742859,0.5501471757888794,1.9264079332351685,false
93350.66152229167,0.1262734830379486,0.03934255242347717,0.1449682116508484,-0.8976629972457886,0.48225337266921997,2.078894853591919,false
93350.67148129168,0.18683913350105286,-0.16037023067474365,0.13057571649551392,-2.0604677200317383,0.3860088586807251,2.312398910522461,false
93350.68144029168,0.21836188435554504,-0.420902818441391,0.1404581069946289,-3.3789167404174805,0.3016364574432373,2.6387572288513184,false
93350.69139929167,0.2351783812046051,-0.6208030581474304,0.16608083248138428,-4.584193229675293,0.24398700892925262,2.967473030090332,false
93350.70135729168,0.26120859384536743,-0.7120043039321899,0.22076326608657837,-5.475800037384033,0.1683366596698761,3.2080888748168945,false
93350.71131629168,0.30894729495048523,-0.6892378926277161,0.2840880751609802,-6.015022277832031,0.08482418954372406,3.397045135498047,false
93350.72127529167,0.36151576042175293,-0.615593433380127,0.3152719736099243,-6.424941062927246,-0.014542010612785816,3.6034722328186035,false
93350.73123429167,0.41100892424583435,-0.5551197528839111,0.3179481625556946,-6.95305871963501,-0.15663203597068787,3.8175344467163086,false
93350.74119229167,0.46457794308662415,-0.5343235731124878,0.31207990646362305,-7.64776611328125,-0.3641023337841034,3.9710559844970703,false
93350.75115129167,0.5133288502693176,-0.5558597445487976,0.3144915699958801,-8.369304656982422,-0.553136944770813,4.035468578338623,false
93350.76111029167,0.5441951751708984,-0.5996667742729187,0.3283502459526062,-9.073909759521484,-0.7346639037132263,4.059612274169922,false
93350.77106829167,0.5579695701599121,-0.6381406784057617,0.36278992891311646,-9.634679794311523,-0.9220236539840698,4.1236348152160645,false
93350.78102729167,0.569427490234375,-0.6167676448822021,0.41475358605384827,-9.806388854980469,-1.1847444772720337,4.241637229919434,false
93350.79098629167,0.6067956686019897,-0.5069857239723206,0.4021364450454712,-9.608956336975098,-1.5543910264968872,4.351112365722656,false
93350.80094529167,0.6769469380378723,-0.35414212942123413,0.3317863643169403,-9.151654243469238,-1.9840335845947266,4.406954288482666,false
93350.81090329167,0.7508912086486816,-0.19747793674468994,0.26321688294410706,-8.58713150024414,-2.3845596313476562,4.378296375274658,false
93350.82086229167,0.782383382320404,-0.08624529838562012,0.18514110147953033,-8.172001838684082,-2.619414806365967,4.286771774291992,false
93350.83082129167,0.7494868040084839,-0.04643446207046509,0.11013823747634888,-7.998746871948242,-2.7026190757751465,4.193060398101807,false
93350.84078029168,0.6829873323440552,-0.05951523780822754,0.0711318850517273,-7.919299602508545,-2.749293565750122,4.036447525024414,false
93350.85073829167,0.6402420401573181,-0.08212816715240479,0.05932025611400604,-7.760230541229248,-2.924105405807495,3.893681049346924,false
93350.86069729168,0.6734203100204468,-0.05228334665298462,0.03407274931669235,-7.4456071853637695,-3.3246796131134033,3.8005380630493164,false
93350.87065629168,0.7921962738037109,0.004296600818634033,0.00661497563123703,-7.05136775970459,-3.740187168121338,3.7300198078155518,false
93350.88061429167,0.9361722469329834,0.10055452585220337,0.007569432258605957,-6.784444332122803,-3.963022470474243,3.5163395404815674,false
93350.89057329168,0.9847156405448914,0.19745248556137085,0.061222851276397705,-6.981300354003906,-4.077365398406982,3.339526891708374,false
93350.90053229168,0.8857830762863159,0.18551760911941528,0.13962632417678833,-7.303040027618408,-4.324330806732178,3.0388689041137695,false
93350.91049129167,0.779464840888977,0.13345706462860107,0.17608362436294556,-7.60591983795166,-4.602468967437744,2.706634044647217,false
93350.92044929168,0.748052716255188,0.08185082674026489,0.1301097869873047,-7.6464948654174805,-4.917695045471191,2.5133450031280518,false
93350.93040829168,0.7492432594299316,0.03172564506530762,0.26823174953460693,-7.023226737976074,-5.201253414154053,2.2090227603912354,false
93350.94036729167,0.7956585884094238,0.12951695919036865,0.41131895780563354,-6.0334906578063965,-5.357096195220947,1.7741502523422241,false
93350.95032629167,0.8339931964874268,0.3209601640701294,0.3623047471046448,-4.964322090148926,-5.412039279937744,1.4841562509536743,false
93350.96028429168,0.7838531732559204,0.4794243574142456,0.2561908960342407,-4.4309186935424805,-5.467696189880371,1.2507761716842651,false
93350.97024329167,0.6799671649932861,0.4584902226924896,0.10791505128145218,-4.532383441925049,-5.591484546661377,1.2519035339355469,false
93350.98020229167,0.6016144752502441,0.2718515992164612,0.03829669952392578,-4.712331295013428,-5.779277801513672,1.2676979303359985,false
93350.99016029167,0.5855964422225952,0.09985584020614624,0.14986322820186615,-4.753748893737793,-5.923242092132568,1.1657586097717285,false
93351.00011929167,0.6041191816329956,0.06488490104675293,0.2032410055398941,-4.403420448303223,-5.964747905731201,0.9146082401275635,false
93351.01007829167,0.5954999923706055,0.19713398814201355,0.247370183467865,-4.103780746459961,-5.837790489196777,0.5554521679878235,false
93351.02003729167,0.5749216079711914,0.43710699677467346,0.22732949256896973,-4.1691203117370605,-5.706674098968506,0.301225870847702,false
93351.02999529167,0.5262479186058044,0.5240453481674194,0.23618239164352417,-4.423872947692871,-5.701000213623047,-0.009647831320762634,false
93351.03995429167,0.5186108350753784,0.48406487703323364,0.29709985852241516,-4.733543872833252,-5.5815205574035645,-0.40436527132987976,false
93351.04991329167,0.6121187210083008,0.5476618409156799,0.34443384408950806,-4.9196858406066895,-5.195694446563721,-0.8688153028488159,false
93351.05987229168,0.546122670173645,0.6911077499389648,0.44721195101737976,-4.920783519744873,-4.736006736755371,-1.4868392944335938,false
93351.06983029167,0.412681519985199,0.810451865196228,0.5092747807502747,-4.912915229797363,-4.152489185333252,-2.069638729095459,false
93351.07978929167,0.4186389446258545,0.938883364200592,0.5624727010726929,-4.972586631774902,-3.547672986984253,-2.58889102935791,true
93351.08974829168,0.3657841086387634,0.9281808137893677,0.6888671517372131,-4.700955867767334,-2.9702553749084473,-3.0905184745788574,false
93351.09970629167,0.3447026014328003,0.8648260235786438,0.8738275170326233,-4.245438098907471,-2.3684916496276855,-3.481260061264038,false
93351.10966529167,0.3912428021430969,0.9015815258026123,1.0019958019256592,-3.7265682220458984,-1.8066829442977905,-3.815855026245117,false
93351.11962429168,0.3679906129837036,0.8469672799110413,1.1822240352630615,-3.2998290061950684,-1.2810535430908203,-4.032026767730713,false
93351.12958329167,0.3885834813117981,0.7553703188896179,1.346053123474121,-2.9314236640930176,-0.7464393973350525,-4.141869068145752,false
93351.13954129168,0.41613149642944336,0.5855529308319092,1.4881304502487183,-2.4536428451538086,-0.16057604551315308,-4.360978603363037,false
93351.14950029168,0.427920401096344,0.395865261554718,1.6086877584457397,-2.042593002319336,0.47024664282798767,-4.623473167419434,false
93351.15945929167,0.4585188627243042,0.3502501845359802,1.5746580362319946,-1.9154762029647827,1.0787895917892456,-4.743334770202637,false
93351.16941829167,0.48833876848220825,0.23433691263198853,1.555959939956665,-1.8003791570663452,1.6863833665847778,-4.638276100158691,false
93351.17937629168,0.5167462825775146,-0.026922523975372314,1.6311326026916504,-1.3335992097854614,2.3017783164978027,-4.541825294494629,false
93351.18933529167,0.5589441061019897,-0.2643304467201233,1.7140884399414062,-0.6420189142227173,2.946803569793701,-4.689805030822754,false
93351.19929429167,0.6155663728713989,-0.29311174154281616,1.6564605236053467,-0.12513044476509094,3.4851574897766113,-4.815091133117676,false
93351.20925229168,0.6734762191772461,-0.16542237997055054,1.4876161813735962,0.15325696766376495,3.8648970127105713,-4.83449649810791,false
93351.21921129167,0.7656206488609314,-0.22652667760849,1.394869089126587,0.24264736473560333,4.207561016082764,-4.807201385498047,false
93351.22917029167,0.8794881105422974,-0.36810117959976196,1.3414572477340698,0.30814409255981445,4.49655294418335,-4.7668938636779785,false
93351.23912929167,0.9283499121665955,-0.4450700879096985,1.2613362073898315,0.41116267442703247,4.659129619598389,-4.716470718383789,false
93351.24908729167,0.9697507619857788,-0.46966618299484253,1.1375714540481567,0.5177090764045715,4.657851219177246,-4.536165237426758,false
93351.25904725,1.0476922988891602,-0.5146635174751282,0.9742986559867859,0.5791093111038208,4.590615272521973,-4.302615642547607,false
93351.26900625,1.1117154359817505,-0.6199837327003479,0.8709577322006226,0.6579817533493042,4.5686445236206055,-4.059428691864014,false
93351.27896525,1.0999137163162231,-0.7032225728034973,0.80446457862854,0.6934089660644531,4.637324810028076,-3.8676891326904297,false
93351.28892325,1.0278656482696533,-0.7368906736373901,0.7337173819541931,0.6223909854888916,4.698483943939209,-3.4759223461151123,false
93351.29888225,0.9275282025337219,-0.8218544125556946,0.7208130359649658,0.9428183436393738,4.722574234008789,-3.0325238704681396,false
93351.30884125001,0.8565146923065186,-0.914995551109314,0.8285375833511353,1.5597690343856812,4.7981791496276855,-2.8483035564422607,false
93351.31879925,0.8588117361068726,-0.8144581913948059,0.8206706643104553,2.094886064529419,4.884868144989014,-2.7855453491210938,false
93351.32875825,0.8568048477172852,-0.6420122385025024,0.7224673628807068,2.474329710006714,4.877606391906738,-2.6412413120269775,false
93351.33871725001,0.8634204268455505,-0.587583065032959,0.6363503932952881,2.56880259513855,4.726147651672363,-2.423398733139038,false
93351.34867625001,0.9251042604446411,-0.6506884098052979,0.5659868121147156,2.2944154739379883,4.54417085647583,-2.1909945011138916,false
93351.35863425,1.0072572231292725,-0.7363407015800476,0.5684617757797241,1.5083836317062378,4.479753494262695,-1.9769401550292969,false
93351.36859325001,1.067686915397644,-0.7915875911712646,0.5665735602378845,0.13201965391635895,4.555653095245361,-1.593566656112671,false
93351.37855225001,1.0934642553329468,-0.8466824293136597,0.6327724456787109,-1.0691426992416382,4.661157131195068,-0.8456331491470337,false
93351.38851125,1.1169397830963135,-0.8951185941696167,0.805180549621582,-1.00370454788208,4.703746318817139,-0.2887004315853119,false
93351.39846925001,1.2223707437515259,-0.7597273588180542,0.7432531118392944,-0.37972113490104675,4.671957015991211,-0.12310759723186493,false
93351.40842825001,1.3281304836273193,-0.5400007963180542,0.5665011405944824,-0.06136391684412956,4.614877223968506,-0.1645549088716507,false
93351.41838725,1.3102086782455444,-0.4246283173561096,0.4204726815223694,-0.19211994111537933,4.557131290435791,-0.2090240716934204,false
93351.42834525001,1.1944127082824707,-0.48522377014160156,0.24075308442115784,-0.8475662469863892,4.400991916656494,-0.20250491797924042,false
93351.43830425001,1.0549789667129517,-0.7074246406555176,0.09657931327819824,-1.713202953338623,4.104945659637451,-0.09977708756923676,false
93351.44826325,0.9385238885879517,-0.9076836109161377,-0.05587363243103027,-2.164449453353882,3.7578814029693604,0.15181651711463928,false
93351.45822225,0.8614885807037354,-0.9430394172668457,-0.2826870381832123,-2.0839264392852783,3.552057981491089,0.5310198068618774,false
93351.46818025001,0.8209654092788696,-0.8637034893035889,-0.5105080604553223,-1.681298017501831,3.5444676876068115,0.8212279677391052,false
93351.47813925,0.7778304219245911,-0.8346234560012817,-0.5640332698822021,-1.2054659128189087,3.7064130306243896,1.3772600889205933,false
93351.48809825,0.6750918030738831,-0.9137254357337952,-0.255931556224823,-0.6777728199958801,3.888549327850342,2.0447704792022705,false
93351.49805725,0.6109377145767212,-0.8350261449813843,-0.03631389141082764,0.5572961568832397,3.9383983612060547,2.1506619453430176,false
93351.50801525,0.6990432739257812,-0.4259781837463379,-0.1604575365781784,2.2017061710357666,3.7951302528381348,1.7615540027618408,false
93351.51797425,0.8268860578536987,-0.04170602560043335,-0.4674917459487915,3.4605960845947266,3.4687271118164062,1.2428367137908936,false
93351.52793325,0.8764134645462036,0.09421074390411377,-0.8103200197219849,3.4529354572296143,3.217500686645508,0.9932678937911987,false
93351.53789125,0.8257731199264526,-0.060861170291900635,-1.028960943222046,2.258206367492676,3.083857297897339,1.0836771726608276,false
93351.54785025,0.6655097603797913,-0.4519575834274292,-1.0768580436706543,0.4730341136455536,2.776280164718628,1.4207884073257446,false
93351.55780925,0.5071022510528564,-0.8218860626220703,-1.1495521068572998,-0.9056955575942993,2.2120308876037598,1.7655515670776367,false
93351.56776825001,0.5255929827690125,-0.9596402645111084,-1.3493683338165283,-1.014060378074646,1.7534310817718506,2.0134589672088623,false
93351.57772625,0.677107036113739,-0.7741943001747131,-1.3354874849319458,-0.2017609030008316,1.4670168161392212,2.345766067504883,false
93351.58768525001,0.7247809767723083,-0.47794008255004883,-1.1431828737258911,0.9334935545921326,1.1924906969070435,2.733684778213501,false
93351.59764425001,0.6673344373703003,-0.20508825778961182,-1.1490525007247925,1.9246042966842651,0.9226896166801453,3.033668279647827,false
93351.60760325,0.6354353427886963,0.09879648685455322,-1.3762160539627075,2.2640702724456787,0.7266266345977783,3.079449415206909,false
93351.61756125001,0.7027308344841003,0.3613325357437134,-1.5694048404693604,2.2465195655822754,0.8113677501678467,3.2151849269866943,false
93351.62752025001,0.8915776014328003,0.5112630128860474,-1.5474185943603516,1.813746690750122,0.8532930612564087,3.6894710063934326,false
93351.63747925,1.2079846858978271,0.4286070466041565,-1.4474098682403564,1.0552188158035278,0.6701217889785767,4.476531982421875,false
93351.64743725001,1.6073555946350098,0.28404247760772705,-1.2983484268188477,0.1701715737581253,0.02014133520424366,4.953035354614258,false
93351.65739625001,1.9999499320983887,0.23274850845336914,-1.1223963499069214,-1.020614504814148,-0.8922442197799683,5.028141021728516,false
93351.66735525,2.2460274696350098,0.21526634693145752,-1.069169282913208,-2.6086246967315674,-1.3154144287109375,5.633752822875977,false
93351.67731425,2.22894549369812,0.2396620512008667,-1.030761957168579,-3.8819215297698975,-1.4756197929382324,6.564180850982666,false
93351.68727225001,2.040347099304199,0.4193696975708008,-0.6636905670166016,-4.015089988708496,-1.7755070924758911,7.089144229888916,false
93351.69723125,1.9047963619232178,0.7590176463127136,-0.3756310045719147,-3.5283079147338867,-2.3151237964630127,6.773001670837402,false
93351.70719025,1.8547253608703613,1.1100571155548096,-0.32795149087905884,-3.1821930408477783,-2.848663568496704,5.97736120223999,true
93351.71714925,1.709233283996582,1.2994680404663086,-0.40483003854751587,-3.4821088314056396,-2.8800830841064453,5.564387798309326,false
93351.72710725,1.4243810176849365,1.1488957405090332,-0.47170478105545044,-4.653929233551025,-2.837498188018799,5.266907215118408,false
93351.73706625,1.2009419202804565,0.8086596727371216,-0.33250123262405396,-6.285407066345215,-3.2317676544189453,5.110270977020264,false
93351.74702525,1.025809645652771,0.5843046307563782,-0.04479750990867615,-6.7309699058532715,-4.047226428985596,5.065251350402832,false
93351.75698325,0.8917607069015503,0.5631149411201477,0.2749399244785309,-5.921374797821045,-4.971254348754883,4.797772407531738,false
93351.76694225,0.7155606746673584,0.6590038537979126,0.3348537087440491,-4.219023704528809,-5.3184123039245605,4.345605850219727,false
93351.77690125,0.30381834506988525,0.7767417430877686,0.38857501745224,-2.8363542556762695,-4.363187789916992,3.979800224304199,false
93351.78686025001,-0.37220388650894165,0.8323813676834106,0.6673060059547424,-2.3167660236358643,-2.882826805114746,3.059502124786377,false
93351.79681825,-1.1102900505065918,1.0884417295455933,0.9637947082519531,-1.6990104913711548,-2.097841739654541,2.127056837081909,false
93351.80677725,-1.5848722457885742,1.385128378868103,0.9355020523071289,-2.0361382961273193,-2.271367311477661,1.7575706243515015,false
93351.81673625001,-1.3462350368499756,1.0619258880615234,0.7555211186408997,-3.3775863647460938,-2.856187582015991,1.5002785921096802,false
93351.82669525001,-0.7397158741950989,0.623627245426178,0.6983232498168945,-4.635377883911133,-3.2978100776672363,1.1358600854873657,false
93351.83665325001,-0.4690456986427307,0.47147366404533386,0.6944285035133362,-4.613211631774902,-3.113774299621582,0.9008458852767944,false
93351.84661225001,-0.5368613600730896,0.4870625138282776,0.8232961893081665,-3.6778061389923096,-2.5390641689300537,0.3151576519012451,false
93351.85657125,-0.7478302717208862,0.6582264304161072,1.083617091178894,-3.0954790115356445,-1.8011146783828735,-0.4003474712371826,false
93351.86653025,-1.0106990337371826,0.8712370991706848,1.1688973903656006,-3.2989680767059326,-1.3588547706604004,-1.4271934032440186,false
93351.87648825001,-1.0762743949890137,0.9486141800880432,1.1145329475402832,-3.8911736011505127,-1.2118486166000366,-1.7941672801971436,false
93351.88644725,-0.9137407541275024,0.8372581005096436,1.0341401100158691,-2.932614326477051,-1.2073053121566772,-2.1207833290100098,false
93351.89640625,-0.7022015452384949,0.7210098505020142,1.0955477952957153,-0.7867032885551453,-0.4115890860557556,-2.47239089012146,false
93351.90636425001,-0.6491149663925171,0.8315542936325073,0.8497121334075928,1.1760791540145874,0.5295355319976807,-2.6537351608276367,false
93351.91632325,-0.8712318539619446,0.6525299549102783,0.7981717586517334,1.8761922121047974,0.8190038204193115,-2.6619479656219482,false
93351.92628225,-0.950783908367157,0.1168830394744873,0.9991418123245239,1.7775737047195435,0.9798131585121155,-2.867492914199829,false
93351.93624125,-0.6834222674369812,-0.2346288561820984,1.3568872213363647,1.2061361074447632,1.4673035144805908,-3.184126615524292,false
93351.94619925,-0.5451432466506958,-0.22006887197494507,1.607020616531372,0.3561325669288635,2.0622239112854004,-3.4116218090057373,false
93351.95615825,-0.6448720097541809,-0.19297945499420166,1.78269624710083,-0.45849668979644775,2.2946417331695557,-3.275097608566284,false
93351.96611725,-0.6287385821342468,-0.39382559061050415,1.7479815483093262,-0.4670534133911133,2.24272084236145,-3.256401538848877,false
93351.97607625001,-0.356878399848938,-0.7082821726799011,1.5852088928222656,0.20890924334526062,2.3791069984436035,-3.4775147438049316,false
93351.98603425,-0.10776716470718384,-0.7066250443458557,1.177282691001892,0.684282124042511,2.5904934406280518,-3.7617993354797363,false
93351.99599325,-0.10108006000518799,-0.5899367928504944,0.9506836533546448,0.8840897679328918,2.874300718307495,-3.826206684112549,false
93352.00595225001,-0.1813398003578186,-0.5900034308433533,0.9218783378601074,1.164791464805603,2.940986156463623,-3.711301565170288,false
93352.01591125001,-0.17256373167037964,-0.6693540811538696,0.8460715413093567,1.2985193729400635,2.9202880859375,-3.5809154510498047,false
93352.02586925,-0.0631304383277893,-0.7903605699539185,0.7962241172790527,1.3311257362365723,2.9367494583129883,-3.4018609523773193,false
93352.03582825001,-0.003127455711364746,-0.8284040093421936,0.6919954419136047,1.1022398471832275,3.0082831382751465,-3.257667303085327,false
93352.04578725001,0.02920246124267578,-0.786445140838623,0.46769776940345764,0.46160128712654114,3.0879995822906494,-3.0482099056243896,false
93352.05574525,0.0856802761554718,-0.6898932456970215,0.3358790874481201,-0.3528929650783539,3.036508083343506,-2.654961347579956,false
93352.06570425001,0.19843918085098267,-0.6315085291862488,0.10989262163639069,-1.1144204139709473,2.717344045639038,-2.039307117462158,false
93352.07566325001,0.468302458524704,-0.6020618677139282,-0.14971403777599335,-1.16716730594635,2.254783868789673,-1.130887746810913,false
93352.08562225,0.8228003978729248,-0.5129620432853699,-0.3435519337654114,0.02298412099480629,1.9749383926391602,-0.17580893635749817,false
93352.09558025001,1.1562490463256836,-0.297441303730011,-0.55849689245224,1.7429600954055786,1.8428202867507935,0.5661674737930298,false
93352.10553925,1.339657187461853,-0.0048920512199401855,-0.8097631335258484,3.153311014175415,1.8257931470870972,1.1733779907226562,false
93352.11549825,1.3855186700820923,0.28580254316329956,-1.175986886024475,4.50646448135376,1.8952183723449707,1.5629160404205322,false
93352.12545725,1.4439576864242554,0.5502524375915527,-1.4152073860168457,5.340342998504639,1.8307679891586304,1.8147847652435303,false
93352.13541525,1.6286439895629883,0.604342520236969,-1.5820941925048828,4.832911014556885,1.5291650295257568,2.274763584136963,false
93352.14537425,1.9500082731246948,0.5341290831565857,-1.3542429208755493,3.263152599334717,0.8976781368255615,2.7468748092651367,false
93352.15533325,2.342054605484009,0.5414767265319824,-1.2327258586883545,0.6294618248939514,-0.080726757645607,3.3626348972320557,false
93352.16529225,2.622576951980591,0.2989099621772766,-1.513251781463623,-2.3248488903045654,-1.158369779586792,4.148739337921143,false
93352.17525025,2.648206949234009,-0.16616809368133545,-1.6725562810897827,-4.41316556930542,-2.096630811691284,4.910308837890625,false
93352.18520925,2.4209113121032715,-0.37576889991760254,-1.6161248683929443,-5.068362236022949,-2.8763680458068848,5.465851783752441,false
93352.19516825001,2.0914833545684814,-0.06450581550598145,-1.500833511352539,-4.402118682861328,-3.5980334281921387,5.198974609375,false
93352.20512625,1.7483099699020386,0.5840656161308289,-1.3353190422058105,-3.1530203819274902,-3.8380138874053955,4.6970014572143555,false
93352.21508525,1.2630274295806885,1.020218849182129,-0.8741863965988159,-2.0050435066223145,-3.8930976390838623,4.254673480987549,true
93352.22504425001,0.6789098978042603,1.0444440841674805,-0.5315121412277222,-1.9922019243240356,-4.0824127197265625,3.895890235900879,false
93352.23500325001,0.13203424215316772,0.9350637197494507,-0.45744773745536804,-2.914238214492798,-4.27610445022583,3.5196332931518555,false
93352.24496125,-0.3370099663734436,0.9464157819747925,-0.1789989173412323,-3.115750312805176,-4.323042869567871,3.246622085571289,false
93352.25492025001,-0.7438647150993347,0.9395822286605835,0.14896327257156372,-2.310206174850464,-4.178696632385254,3.0705394744873047,false
93352.26487887501,-0.9795708656311035,0.7882157564163208,0.31535017490386963,-1.291527271270752,-3.8574376106262207,2.610992193222046,false
93352.27483787501,-0.9504023194313049,0.7564798593521118,0.41267839074134827,-0.6511198282241821,-3.3363354206085205,1.839998722076416,false
93352.284795875,-0.7908002138137817,0.8347861170768738,0.6582506895065308,-0.37677133083343506,-2.657728433609009,0.8876615762710571,false
93352.29475487501,-0.6580650806427002,0.8193992376327515,0.9461438655853271,-0.4116266667842865,-2.0462775230407715,0.10303926467895508,false
93352.30471387501,-0.6648015379905701,0.6372358202934265,1.169472575187683,-1.063165545463562,-1.6135832071304321,-0.508163332939148,false
93352.314672875,-0.7365891337394714,0.40354692935943604,1.2739605903625488,-1.6985549926757812,-1.2381603717803955,-0.9003373980522156,false
93352.32463087501,-0.7156587839126587,0.2426621913909912,1.3603426218032837,-2.032398223876953,-1.055195927619934,-1.257068395614624,false
93352.33458987501,-0.6199121475219727,0.08704304695129395,1.421982765197754,-2.3220882415771484,-0.5775340795516968,-1.6062793731689453,false
93352.344548875,-0.5643059611320496,0.03442645072937012,1.4001274108886719,-2.7472245693206787,0.07962916046380997,-2.106152296066284,false
93352.35450687501,-0.6514366865158081,0.0696527361869812,1.4542274475097656,-3.2614009380340576,0.5121890306472778,-2.264416217803955,false
93352.36446587501,-0.8108479976654053,0.008043110370635986,1.3741549253463745,-3.4946162700653076,0.7803502082824707,-2.4149892330169678,false
93352.374424875,-0.719974160194397,-0.08877789974212646,1.3638430833816528,-3.0599746704101562,1.122733473777771,-2.6480050086975098,false
93352.384383875,-0.5868644118309021,-0.08194160461425781,1.3623056411743164,-1.8629049062728882,1.8297175168991089,-2.862435817718506,false
93352.394341875,-0.6261307597160339,-0.01381230354309082,1.3789525032043457,0.01864716410636902,2.4197936058044434,-2.9940025806427,false
93352.404300875,-0.7369357347488403,-0.022667109966278076,1.3064751625061035,1.2018541097640991,2.744178295135498,-3.1315486431121826,false
93352.414259875,-0.6295472979545593,-0.19473028182983398,1.0301823616027832,0.9649556279182434,2.786928176879883,-3.2487387657165527,false
93352.424218875,-0.4179433584213257,-0.45788753032684326,1.0978689193725586,0.7783529758453369,2.942051887512207,-3.040151834487915,false
93352.434176875,-0.3095777630805969,-0.6753441691398621,1.1802603006362915,0.8698830604553223,2.92983341217041,-3.244401693344116,false
93352.444135875,-0.23522597551345825,-0.7602103352546692,1.0721795558929443,1.001927375793457,3.195988178253174,-3.1442246437072754,false
93352.45409487501,-0.18840625882148743,-0.6980839371681213,0.9708929657936096,1.1900349855422974,3.2216246128082275,-3.210615634918213,false
93352.46405387501,-0.20896431803703308,-0.6937374472618103,0.890782356262207,0.7298372387886047,3.5468263626098633,-3.5871050357818604,false
93352.474011875,-0.13952741026878357,-0.6519020795822144,0.8318520188331604,0.604714572429657,3.693312406539917,-3.226388931274414,false
93352.48397087501,-0.198085218667984,-0.6146689057350159,0.8889954090118408,0.9972597360610962,3.412600517272949,-2.951550245285034,false
93352.49392987501,-0.04735574126243591,-0.8580964207649231,0.6125054955482483,0.9749642014503479,3.523073196411133,-2.9119036197662354,false
93352.503888875,0.2294597029685974,-0.8817505836486816,0.606905996799469,1.3873189687728882,3.8374879360198975,-2.720005512237549,false
93352.51384687501,0.2545102536678314,-0.5558360815048218,0.5216402411460876,2.3084158897399902,3.9119927883148193,-2.3788809776306152,false
93352.52380587501,0.44122636318206787,-0.2893877625465393,0.09726597368717194,2.4902329444885254,3.82357120513916,-1.9579936265945435,false
93352.533764875,0.7724621295928955,-0.2436864972114563,-0.10598056018352509,1.8301408290863037,3.858562707901001,-1.66243314743042,false
93352.543723875,1.0085740089416504,-0.23062759637832642,-0.21784906089305878,1.0204812288284302,3.821866989135742,-1.3496830463409424,false
93352.55368187501,1.1385319232940674,-0.23424077033996582,-0.16071663796901703,1.273171305656433,3.5444552898406982,-0.9663026928901672,false
93352.563640875,1.247665286064148,-0.18099230527877808,-0.36984822154045105,1.9746370315551758,2.9411418437957764,-0.26440712809562683,false
93352.573599875,1.4016996622085571,-0.205854594707489,-0.7523255348205566,2.6970372200012207,2.2904863357543945,0.9381788969039917,false
93352.58355787501,1.5469753742218018,-0.13825076818466187,-1.209847331047058,3.229740619659424,1.7955448627471924,2.4893715381622314,false
93352.593516875,1.6916654109954834,0.10724955797195435,-1.450727105140686,3.4085357189178467,1.5733418464660645,3.5506672859191895,false
93352.603475875,1.8930281400680542,0.4406443238258362,-1.5473089218139648,2.757223129272461,1.3515756130218506,3.80865216255188,false
93352.613434875,2.190980911254883,0.5510122776031494,-1.7671828269958496,0.9721620678901672,0.8435356616973877,4.108426570892334,false
93352.623392875,2.5327494144439697,0.2857731580734253,-1.7061877250671387,-1.1979336738586426,0.19106359779834747,4.728734493255615,false
93352.633351875,2.7439427375793457,-0.050357043743133545,-1.2956206798553467,-3.1883668899536133,-0.6192248463630676,5.378857135772705,false
93352.643310875,2.5787110328674316,-0.20578157901763916,-1.111222267150879,-4.067473411560059,-1.6723319292068481,5.711263656616211,false
93352.65326987501,2.2169175148010254,0.04455512762069702,-1.2146012783050537,-3.724301338195801,-2.8567659854888916,5.443414688110352,false
93352.663227875,1.8519952297210693,0.6480250954627991,-1.4154174327850342,-2.640575408935547,-4.009445667266846,4.501028060913086,false
93352.673186875,1.372833490371704,1.1868568658828735,-1.43015456199646,-1.9572789669036865,-4.320483684539795,3.4812257289886475,true
93352.68314587501,0.6865151524543762,1.4134347438812256,-1.2389473915100098,-1.6744259595870972,-3.915891647338867,2.873060941696167,false
93352.69310487501,-0.10899853706359863,1.3279407024383545,-0.9093791842460632,-1.713196873664856,-3.4336092472076416,3.10787034034729,false
93352.703062875,-0.827159583568573,0.8291762471199036,-0.5282962322235107,-2.2472901344299316,-3.3150744438171387,3.490910768508911,false
93352.71302187501,-1.1986150741577148,0.3144768476486206,-0.05462732911109924,-2.4864015579223633,-3.3865466117858887,3.1071789264678955,false
93352.72298087501,-1.1765871047973633,0.22529703378677368,0.176043301820755,-1.9228756427764893,-3.320185422897339,2.2043886184692383,false
93352.732939875,-0.8625285625457764,0.4583474397659302,0.17998063564300537,-0.9464594721794128,-3.0805094242095947,1.419450044631958,false
93352.74289787501,-0.5297904014587402,0.8124749064445496,0.30338385701179504,-0.3368070721626282,-2.7536425590515137,0.8891664743423462,false
93352.752856875,-0.44941896200180054,0.8992122411727905,0.4209986925125122,-1.0405818223953247,-2.5437583923339844,0.6528128981590271,false
93352.762815875,-0.5533735752105713,0.5312649607658386,0.4744659662246704,-2.4207098484039307,-2.5544650554656982,0.5602390766143799,false
93352.772774875,-0.6013907194137573,0.03397512435913086,0.7459832429885864,-3.143383026123047,-2.5133090019226074,0.17615850269794464,false
93352.782732875,-0.533014714717865,-0.19160813093185425,1.0828583240509033,-2.7983083724975586,-2.0558505058288574,-0.49325045943260193,false
93352.792691875,-0.5501288771629333,-0.0558505654335022,1.134574055671692,-1.4933618307113647,-1.3315463066101074,-1.0318353176116943,false
93352.802650875,-0.7306472063064575,0.25392067432403564,1.0851645469665527,-0.11063559353351593,-0.8452539443969727,-1.425107717514038,false
93352.812609875,-0.8238856196403503,0.3018738627433777,1.0872879028320312,0.16991771757602692,-0.6099141836166382,-1.5910589694976807,false
93352.822567875,-0.6933462619781494,0.10220080614089966,1.2408640384674072,-0.0113538121804595,-0.2261960804462433,-1.8436256647109985,false
93352.832526875,-0.5954821109771729,-0.095467209815979,1.3677678108215332,0.10788396745920181,0.30938059091567993,-1.8754545450210571,false
93352.84248587501,-0.6997154355049133,-0.19228500127792358,1.395387053489685,-0.005321686156094074,0.5723304748535156,-1.8756873607635498,false
93352.852443875,-0.7857497930526733,-0.4317733645439148,1.4720404148101807,0.23890630900859833,0.8595882654190063,-2.0016109943389893,false
93352.862402875,-0.6397038698196411,-0.4609273672103882,1.3903782367706299,0.3291533887386322,1.2949442863464355,-2.6481399536132812,false
93352.87236187501,-0.4907025694847107,-0.27799803018569946,1.4034713506698608,0.6334386467933655,2.1312882900238037,-2.68994402885437,false
93352.88232087501,-0.6394359469413757,-0.10387212038040161,1.4405794143676758,0.26252448558807373,2.3073315620422363,-2.83221435546875,false
93352.892278875,-0.7792999744415283,-0.403245210647583,1.364269733428955,0.22747433185577393,2.336150646209717,-2.789041042327881,false
93352.90223787501,-0.5616477727890015,-0.5897717475891113,1.2748374938964844,0.23714134097099304,2.251230001449585,-3.0287551879882812,false
93352.91219687501,-0.3143274188041687,-0.6066411733627319,1.1357958316802979,0.39165928959846497,2.709536075592041,-3.2838947772979736,false
93352.922155875,-0.20736151933670044,-0.4691457748413086,0.9661580324172974,0.08826026320457458,3.1973793506622314,-3.3181560039520264,false
93352.93211387501,-0.2818494737148285,-0.4114593267440796,0.8727826476097107,0.6700934767723083,2.8631114959716797,-2.6605184078216553,false
93352.94207287501,-0.2621186375617981,-0.7071669101715088,0.6502615809440613,0.6299993395805359,2.762220621109009,-2.6410715579986572,false
93352.952031875,0.14020270109176636,-0.8776320219039917,0.4172520637512207,0.5022470951080322,3.235677480697632,-2.6692116260528564,false
93352.961990875,0.24183744192123413,-0.44193655252456665,0.3778683543205261,1.1519381999969482,3.4957025051116943,-2.3394243717193604,false
93352.97194887501,0.24055764079093933,-0.24029600620269775,-0.006561547517776489,1.529396891593933,3.4510562419891357,-1.8781582117080688,false
93352.981907875,0.552358865737915,-0.28331005573272705,-0.06896668672561646,2.091702461242676,3.2780401706695557,-1.6678917407989502,false
93352.991866875,0.7978267669677734,-0.061825573444366455,-0.20697513222694397,3.0663347244262695,3.1110358238220215,-1.2630385160446167,false
93353.001825875,0.953691840171814,0.12710869312286377,-0.6568652391433716,3.6985714435577393,2.885776996612549,-0.16113746166229248,false
93353.011783875,1.144829511642456,0.09157705307006836,-1.0446096658706665,4.101761817932129,2.5663797855377197,1.267905831336975,false
93353.021742875,1.4445114135742188,0.15152758359909058,-1.3543117046356201,4.488165855407715,2.1630003452301025,2.315620183944702,false
93353.031701875,1.8462320566177368,0.36701375246047974,-1.529715895652771,3.789224147796631,1.6976103782653809,2.7620108127593994,false
93353.04166087501,2.2382447719573975,0.41014230251312256,-1.486611008644104,1.8656423091888428,1.2834172248840332,3.071380853652954,false
93353.051618875,2.5002334117889404,0.21185731887817383,-1.3979980945587158,-0.8547074198722839,0.42311030626296997,3.329958200454712,false
93353.061577875,2.692107677459717,-0.08810371160507202,-1.5425047874450684,-3.1015937328338623,-0.6382672786712646,3.6459898948669434,false
93353.07153687501,2.7860846519470215,-0.32729393243789673,-1.883583664894104,-4.577147483825684,-1.807572364807129,4.335983753204346,false
93353.08149587501,2.5412697792053223,-0.5000824928283691,-1.9102919101715088,-5.466834545135498,-2.9482738971710205,5.252847671508789,false
93353.09145387501,2.103247880935669,-0.22373110055923462,-1.8064062595367432,-4.695024490356445,-3.892993927001953,5.13052225112915,false
93353.10141287501,1.6501986980438232,0.5992514491081238,-1.5913405418395996,-2.8417978286743164,-4.337897777557373,4.098119258880615,false
93353.111371875,0.9736877083778381,1.1215369701385498,-1.4007524251937866,-1.3879029750823975,-4.193247318267822,3.595465660095215,true
93353.121330875,0.19021469354629517,1.1112138032913208,-1.1005456447601318,-0.9412118196487427,-3.980267286300659,3.475620985031128,false
93353.13128887501,-0.3836151957511902,0.964658260345459,-0.5766582489013672,-1.0422632694244385,-3.8401308059692383,3.253068447113037,false
93353.141247875,-0.7605847716331482,0.8526700139045715,-0.18173491954803467,-1.2578305006027222,-3.7379209995269775,2.7777676582336426,false
93353.151206875,-0.9360402822494507,0.7342078685760498,-0.05062204599380493,-0.953561007976532,-3.5239012241363525,2.1583633422851562,false
93353.161165875,-0.8673205375671387,0.7734853625297546,0.24263828992843628,-0.5002774000167847,-3.115978717803955,1.646527647972107,false
93353.171123875,-0.7243247032165527,0.8314265012741089,0.5994749069213867,-0.572589099407196,-2.73471736907959,1.1578515768051147,false
93353.181082875,-0.6534461379051208,0.6366588473320007,0.8128566741943359,-0.9200029969215393,-2.4618782997131348,0.8442670106887817,false
93353.191041875,-0.60211580991745,0.3887835741043091,0.969592809677124,-1.2582849264144897,-2.2967331409454346,0.5565468668937683,false
93353.20100087501,-0.47509777545928955,0.2079516053199768,1.0953700542449951,-1.2036712169647217,-2.120645523071289,0.1355983167886734,false
93353.210958875,-0.4011088013648987,0.14591223001480103,1.211937427520752,-0.928597629070282,-1.6786521673202515,-0.2842245399951935,false
93353.220917875,-0.48944568634033203,0.16223859786987305,1.2370532751083374,-0.886914849281311,-1.1256020069122314,-0.63487708568573,false
93353.23087687501,-0.6498542428016663,0.1709994673728943,1.3507109880447388,-1.3916133642196655,-0.8259904980659485,-0.8882153630256653,false
93353.24083587501,-0.7401715517044067,0.07039618492126465,1.5129379034042358,-2.1283321380615234,-0.5418011546134949,-1.0178875923156738,false
93353.250793875,-0.7305951714515686,-0.1079244613647461,1.6335294246673584,-2.1927003860473633,0.012924366630613804,-1.3090159893035889,false
93353.26075287501,-0.750607430934906,-0.23293405771255493,1.7485824823379517,-2.0792620182037354,0.27847108244895935,-1.6220569610595703,false
93353.270712125,-0.8045880198478699,-0.2989366054534912,1.7724359035491943,-1.2567154169082642,0.8122413158416748,-2.0595595836639404,false
93353.280671125,-0.716566801071167,-0.14108341932296753,1.5022900104522705,-0.09489131718873978,1.5380642414093018,-2.3800554275512695,false
93353.29062912501,-0.6937937140464783,0.03740662336349487,1.341533899307251,0.0752892717719078,1.71449875831604,-2.092151165008545,false
93353.300588125,-0.751175582408905,-0.3209567070007324,1.4759125709533691,-0.06020597368478775,1.7481626272201538,-2.5008649826049805,false
93353.310547125,-0.5113649964332581,-0.5948159098625183,1.3773952722549438,0.3093503713607788,2.3642218112945557,-2.9207866191864014,false
93353.32050512501,-0.33156847953796387,-0.22831958532333374,1.2152835130691528,0.1311420202255249,2.7605960369110107,-2.91510009765625,false
93353.330464125,-0.4761093854904175,-0.2403327226638794,1.2406240701675415,-0.5877979397773743,2.95361590385437,-2.919065475463867,false
93353.340423125,-0.43269383907318115,-0.5126811861991882,1.1042051315307617,-1.237588882446289,2.8418517112731934,-3.04010009765625,false
93353.350382125,-0.22620397806167603,-0.6058731079101562,0.9660714864730835,-1.2878129482269287,2.803112506866455,-2.8776612281799316,false
93353.36034112501,-0.053166985511779785,-0.667239785194397,0.8262971043586731,-1.4291373491287231,3.0831010341644287,-3.1467366218566895,false
93353.370299125,-0.003328561782836914,-0.5964336395263672,0.6905679702758789,-0.7305758595466614,3.213667154312134,-2.6667516231536865,false
93353.380258125,-0.11765646934509277,-0.49080705642700195,0.5804652571678162,0.32885417342185974,3.065700054168701,-2.411790370941162,false
93353.39021712501,0.010111987590789795,-0.5450019836425781,0.15707436203956604,1.2594395875930786,3.206267833709717,-2.3251447677612305,false
93353.40017612501,0.2245783507823944,-0.2936302423477173,0.08537852764129639,2.14219069480896,3.3577733039855957,-2.0449306964874268,false
93353.410134125,0.20585200190544128,-0.05515289306640625,-0.2317604273557663,2.6693954467773438,3.2626545429229736,-1.648047924041748,false
93353.42009312501,0.3485604524612427,-0.036864638328552246,-0.5223475694656372,2.842466115951538,3.1196162700653076,-1.3700921535491943,false
93353.43005212501,0.5976197719573975,0.034756600856781006,-0.6701892614364624,2.8430118560791016,2.7081544399261475,-1.2134336233139038,false
93353.440011125,0.8296778202056885,0.09242308139801025,-0.8889574408531189,3.128521680831909,2.200117826461792,-0.5358468294143677,false
93353.44996912501,1.038762092590332,0.10035973787307739,-1.2964789867401123,3.354065179824829,1.6461445093154907,0.654894232749939,false
93353.45992812501,1.318037986755371,0.03417688608169556,-1.3703885078430176,3.7761118412017822,1.3042000532150269,1.789249300956726,false
93353.469887125,1.6009122133255005,0.1817895770072937,-1.3125333786010742,3.9145309925079346,1.1259140968322754,2.5472970008850098,false
93353.47984512501,1.821068525314331,0.36225783824920654,-1.2273120880126953,3.315744638442993,0.8709524273872375,2.7989463806152344,false
93353.48980412501,2.0671231746673584,0.39017194509506226,-1.337926983833313,1.4889671802520752,0.2242196947336197,2.9055323600769043,false
93353.499763125,2.3630406856536865,0.2206907868385315,-1.5573768615722656,-0.8614485263824463,-0.5612245202064514,3.2469875812530518,false
93353.509722125,2.5754644870758057,-0.002966940402984619,-1.7177419662475586,-2.7950289249420166,-1.3298184871673584,3.947814464569092,false
93353.519681125,2.4265799522399902,-0.24786287546157837,-1.6879611015319824,-3.835777521133423,-2.1088125705718994,4.728865146636963,false
93353.529639125,1.9972128868103027,-0.215378999710083,-1.5898041725158691,-3.412215232849121,-2.847010612487793,4.874831199645996,false
93353.539598125,1.6058783531188965,0.369728147983551,-1.478370189666748,-2.0450522899627686,-3.3891031742095947,4.345788478851318,false
93353.549557125,1.1757254600524902,0.8859463334083557,-1.3159706592559814,-0.9634339809417725,-3.521919012069702,3.8738789558410645,false
93353.55951612501,0.618743360042572,1.0039925575256348,-0.9791463613510132,-0.8728582859039307,-3.51574444770813,3.582191228866577,true
93353.569474125,0.09714144468307495,0.9527687430381775,-0.4523080289363861,-1.486959457397461,-3.6156697273254395,3.301173210144043,false
93353.579433125,-0.35547536611557007,0.8390883207321167,-0.05719754099845886,-2.459669828414917,-3.657050848007202,2.9529950618743896,false
93353.58939212501,-0.7149819135665894,0.6512702703475952,0.07556486129760742,-2.656705141067505,-3.498734712600708,2.4168052673339844,false
93353.599350125,-0.9345978498458862,0.6310601234436035,0.2853727340698242,-2.14197039604187,-3.231914520263672,1.9339449405670166,false
93353.60930912501,-1.003262996673584,0.6453742980957031,0.4397571086883545,-1.538946270942688,-2.8536555767059326,1.4711142778396606,false
93353.61926812501,-0.889478862285614,0.5429084300994873,0.5949646234512329,-1.075777530670166,-2.4070281982421875,0.8776628971099854,false
93353.629227125,-0.7039385437965393,0.4438837766647339,0.7791688442230225,-0.8849841356277466,-2.0434343814849854,0.37706658244132996,false
93353.639186125,-0.5810579657554626,0.30102986097335815,0.9577082395553589,-0.8607177138328552,-1.7147703170776367,-0.13386300206184387,false
93353.64914412501,-0.520825982093811,0.18488138914108276,1.1668939590454102,-0.5428118109703064,-1.2057745456695557,-0.616304337978363,false
93353.659103125,-0.5624890327453613,0.16227072477340698,1.2712424993515015,-0.4499465525150299,-0.7970989346504211,-0.9146790504455566,false
93353.669062125,-0.651323676109314,0.09354615211486816,1.3520097732543945,-0.4391360282897949,-0.4883991777896881,-1.1789933443069458,false
93353.679021125,-0.6415982842445374,0.05318284034729004,1.425260066986084,-0.2146075963973999,-0.180715411901474,-1.3487296104431152,false
93353.688979125,-0.5682640075683594,0.063637375831604,1.4215341806411743,-0.08144628256559372,0.2822405695915222,-1.6012088060379028,false
93353.698938125,-0.5572329163551331,-0.022368788719177246,1.4141316413879395,-0.4415176510810852,0.6107220649719238,-1.7177125215530396,false
93353.708897125,-0.6842342019081116,-0.19008409976959229,1.536438226699829,-0.8420692682266235,0.9066608548164368,-1.7809566259384155,false
93353.71885612501,-0.7591685056686401,-0.3124679923057556,1.5698214769363403,-0.5755699276924133,1.4581986665725708,-2.1878790855407715,false
93353.728814125,-0.676276445388794,-0.14926791191101074,1.4642328023910522,-0.5527275204658508,1.8769073486328125,-2.0691018104553223,false
93353.738773125,-0.6919588446617126,-0.1605452299118042,1.5296499729156494,-0.678764283657074,1.8822451829910278,-2.0423710346221924,false
93353.74873212501,-0.6397889852523804,-0.5091021656990051,1.4888315200805664,-0.2335292249917984,2.1638638973236084,-2.4322211742401123,false
93353.75869112501,-0.41038697957992554,-0.42319321632385254,1.2317390441894531,0.1726134866476059,2.5226073265075684,-2.4980454444885254,false
93353.768649125,-0.40453827381134033,-0.26091814041137695,1.1616238355636597,-0.11644721031188965,2.781649589538574,-2.6207468509674072,false
93353.77860812501,-0.46933549642562866,-0.4246148467063904,1.0807305574417114,-0.4935145676136017,2.7083237171173096,-2.4201695919036865,false
93353.78856712501,-0.43090397119522095,-0.6100904941558838,0.963159441947937,-0.4347526729106903,2.428999662399292,-2.417142152786255,false
93353.798526125,-0.21525055170059204,-0.7371554374694824,0.8241209983825684,-0.13885551691055298,2.712440252304077,-2.6950016021728516,false
93353.80848412501,-0.04541122913360596,-0.5243967175483704,0.659074604511261,0.10449888557195663,3.182112216949463,-2.6895670890808105,false
93353.81844312501,-0.13901358842849731,-0.30925077199935913,0.6447337865829468,1.1418850421905518,3.1662800312042236,-2.106945514678955,false
93353.828402125,-0.1820436716079712,-0.4211741089820862,0.28384166955947876,1.6904538869857788,3.326368808746338,-2.013777256011963,false
93353.838361125,0.2126615345478058,-0.3971582055091858,0.157649427652359,2.2775135040283203,3.8061718940734863,-2.1606225967407227,false
93353.84831912501,0.4005798399448395,0.04406660795211792,0.09355494379997253,2.769575357437134,3.969860076904297,-2.1596503257751465,false
93353.858278125,0.5603011846542358,0.15594995021820068,-0.3310738801956177,3.113835573196411,3.6664066314697266,-2.080988645553589,false
93353.868237125,0.928743839263916,0.12422090768814087,-0.4384157657623291,3.315857410430908,3.238798141479492,-1.608900785446167,false
93353.878196125,1.2430617809295654,0.10580670833587646,-0.5751605033874512,3.520028591156006,2.7970221042633057,-0.6628677248954773,false
93353.888154125,1.4939039945602417,0.09897804260253906,-0.7650862336158752,4.090775966644287,2.6140453815460205,0.6310651302337646,false
93353.898113125,1.7003307342529297,0.25301092863082886,-0.9786469340324402,4.817370414733887,2.431638717651367,1.6395376920700073,false
93353.908072125,1.8631911277770996,0.3941524028778076,-1.1573752164840698,4.819920539855957,1.9489246606826782,1.9581185579299927,false
93353.91803112501,1.9336092472076416,0.42560529708862305,-1.6653612852096558,3.2405757904052734,1.315652847290039,2.1098580360412598,false
93353.927989125,1.8939793109893799,0.19165748357772827,-2.0862021446228027,0.6655678749084473,0.8111703395843506,2.679410934448242,false
93353.937948125,1.911765694618225,-0.18266963958740234,-1.9922524690628052,-2.0070908069610596,0.04633631929755211,3.3613533973693848,false
93353.94790712501,2.052100896835327,-0.5706071853637695,-1.6360158920288086,-3.7324752807617188,-0.9862391352653503,3.716914653778076,false
93353.95786612501,2.2668590545654297,-0.7289412021636963,-1.5944314002990723,-4.557330131530762,-1.9891033172607422,4.009149551391602,false
93353.96782412501,2.2640676498413086,-0.5162283182144165,-1.5494824647903442,-4.704892158508301,-2.7153451442718506,4.55739688873291,false
93353.97778312501,1.9150021076202393,0.06347817182540894,-1.5000088214874268,-3.2707571983337402,-3.338071346282959,4.372200012207031,false
93353.987742125,1.4169902801513672,0.7397552132606506,-1.3806796073913574,-1.6545970439910889,-3.6807146072387695,3.5941660404205322,false
93353.997701125,0.8155642747879028,0.9875378012657166,-1.3306492567062378,-0.7437373399734497,-3.524310827255249,3.1736650466918945,true
93354.00765912501,0.18576383590698242,0.9605152606964111,-1.172447681427002,-0.7671445608139038,-3.2942090034484863,3.2084343433380127,false
93354.017618125,-0.29348307847976685,0.8130534291267395,-0.6899079084396362,-1.4106673002243042,-3.351583957672119,3.4074974060058594,false
93354.027577125,-0.6131601333618164,0.5296131372451782,-0.19761598110198975,-2.057333469390869,-3.6796460151672363,3.3659605979919434,false
93354.037536125,-0.728931188583374,0.3163401484489441,0.06934762001037598,-2.208338499069214,-3.817729949951172,2.7718465328216553,false
93354.047494125,-0.6338918209075928,0.3957579731941223,0.2342994213104248,-1.6116943359375,-3.5563528537750244,1.9123585224151611,false
93354.057453125,-0.5247147679328918,0.764761745929718,0.49265098571777344,-1.0708669424057007,-3.125830888748169,1.3106969594955444,false
93354.067412125,-0.56578528881073,0.9326764941215515,0.7432377338409424,-0.9366262555122375,-2.7958450317382812,0.915952742099762,false
93354.07737112501,-0.6465334892272949,0.7687188982963562,0.8832029700279236,-1.1829156875610352,-2.5873751640319824,0.6666885614395142,false
93354.087329125,-0.6038712859153748,0.46626603603363037,0.9894850850105286,-1.1990118026733398,-2.4612154960632324,0.24703052639961243,false
93354.097288125,-0.4494355320930481,0.33255529403686523,1.2322769165039062,-0.8957829475402832,-2.093156099319458,-0.18074823915958405,false
93354.10724712501,-0.4357883930206299,0.36982637643814087,1.3285496234893799,-0.6736134886741638,-1.445570707321167,-0.5823292136192322,false
93354.11720612501,-0.5825433731079102,0.33422768115997314,1.3554834127426147,-0.820935070514679,-0.9472554922103882,-0.9431659579277039,false
93354.127164125,-0.7270415425300598,0.20515698194503784,1.4778918027877808,-1.2315752506256104,-0.6931535601615906,-1.1299693584442139,false
93354.13712312501,-0.7350340485572815,0.03880840539932251,1.5955619812011719,-1.3440357446670532,-0.4596150815486908,-1.3867332935333252,false
93354.14708212501,-0.599628210067749,-0.047523319721221924,1.637991189956665,-1.1701769828796387,-0.11607522517442703,-1.703766942024231,false
93354.157041125,-0.5184104442596436,-0.1058235764503479,1.6748918294906616,-0.8787065744400024,0.3376280665397644,-1.9649149179458618,false
93354.16699912501,-0.5616216659545898,-0.1674850583076477,1.7004566192626953,-0.04312951862812042,1.0225075483322144,-2.314297676086426,false
93354.17695812501,-0.6286876201629639,-0.06959283351898193,1.621084451675415,0.37513190507888794,1.415712833404541,-2.2220723628997803,false
93354.186917125,-0.710028886795044,-0.1940135359764099,1.6526975631713867,0.027056492865085602,1.3894336223602295,-2.1993207931518555,false
93354.196876125,-0.5909600257873535,-0.5729643106460571,1.5994547605514526,-0.031599096953868866,1.7030317783355713,-2.560800552368164,false
93354.20683412501,-0.3428402543067932,-0.4586564302444458,1.3770387172698975,0.10787397623062134,2.1342077255249023,-2.5151376724243164,false
93354.216793125,-0.3836856484413147,-0.29136085510253906,1.363441824913025,-0.06551778316497803,2.3733274936676025,-2.629978656768799,false
93354.226752125,-0.4712901711463928,-0.4954373240470886,1.2889235019683838,-0.44555753469467163,2.55676007270813,-2.7362616062164307,false
93354.236711125,-0.39325904846191406,-0.549534022808075,1.1316128969192505,-0.7525216937065125,2.5274858474731445,-2.748533248901367,false
93354.246669125,-0.29378730058670044,-0.6183432340621948,1.0721651315689087,-0.3432943820953369,2.5098812580108643,-2.483652114868164,false
93354.256628125,-0.18234705924987793,-0.7315405011177063,0.9345329999923706,-0.011800091713666916,2.750415086746216,-2.8227314949035645,false
93354.26658691667,-0.04773378372192383,-0.5935938358306885,0.7467283010482788,0.8402959704399109,3.225437879562378,-2.791445732116699,false
93354.27654591667,-0.07367098331451416,-0.24892210960388184,0.6039974093437195,0.8768864274024963,3.497194528579712,-2.8207032680511475,false
93354.28650391668,-0.006139218807220459,-0.24819493293762207,0.29947036504745483,0.9195500612258911,3.5693578720092773,-2.7648444175720215,false
93354.29646291667,0.19196170568466187,-0.1876571774482727,0.20709487795829773,1.1664386987686157,3.3106656074523926,-2.549471855163574,false
93354.30642191667,0.39176279306411743,-0.20590275526046753,-0.2087394893169403,1.6179089546203613,2.979607343673706,-2.3842074871063232,false
93354.31638091667,0.675208568572998,-0.29732686281204224,-0.4925963878631592,1.5449516773223877,2.8302948474884033,-1.955836296081543,false
93354.32633891667,0.7919861078262329,-0.2804384231567383,-0.42671433091163635,2.267627477645874,2.6978135108947754,-1.504515290260315,false
93354.33629791667,0.8173076510429382,-0.07188814878463745,-0.7143775224685669,3.3830578327178955,2.805363416671753,-0.6294093132019043,false
93354.34625691667,0.9705772399902344,0.17581045627593994,-1.1764566898345947,3.9786288738250732,2.837542772293091,0.17009584605693817,false
93354.35621591668,1.3184096813201904,0.30768704414367676,-1.1859290599822998,4.181408882141113,2.3509163856506348,0.45811566710472107,false
93354.36617391667,1.7138601541519165,0.44529956579208374,-1.4856085777282715,3.4691905975341797,1.4722366333007812,0.8131809234619141,false
93354.37613291667,2.105964183807373,0.3398575782775879,-1.9337897300720215,1.7195448875427246,0.7049681544303894,1.8078254461288452,false
93354.38609191668,2.2997400760650635,-0.05725586414337158,-2.040710926055908,-0.9392797350883484,0.09791682660579681,2.8839707374572754,false
93354.39605091668,2.2545166015625,-0.5531200170516968,-1.7423810958862305,-3.2373604774475098,-0.11522607505321503,3.3904366493225098,false
93354.40600891667,2.1166434288024902,-0.5720760226249695,-1.3202378749847412,-3.7790493965148926,-0.48479974269866943,3.5796525478363037,false
93354.41596791668,1.9452621936798096,-0.22245967388153076,-1.0852324962615967,-3.8800790309906006,-1.4308421611785889,4.078449726104736,false
93354.42592691668,1.8098680973052979,-0.012311339378356934,-1.2923675775527954,-3.06685209274292,-2.469907760620117,4.355812072753906,false
93354.43588591667,1.702754020690918,0.5734106302261353,-1.4215035438537598,-1.4196112155914307,-3.080286979675293,3.7148170471191406,false
93354.44584391668,1.3603254556655884,1.2369495630264282,-1.3163912296295166,-0.27765220403671265,-2.906752347946167,3.115501880645752,true
93354.45580291667,0.7133100628852844,1.3069252967834473,-1.183546781539917,-0.19480420649051666,-2.5456724166870117,2.907222032546997,false
93354.46576191667,0.11620956659317017,1.0084697008132935,-0.9637269973754883,-0.900907576084137,-2.5925052165985107,2.9679012298583984,false
93354.47572091667,-0.2806849479675293,0.716449499130249,-0.5772582292556763,-1.907796025276184,-2.9942634105682373,3.2439961433410645,false
93354.48567891667,-0.5422967672348022,0.3898017406463623,-0.1858673095703125,-2.5906145572662354,-3.287429094314575,3.2877938747406006,false
93354.49563791667,-0.6453804969787598,0.1904115080833435,0.10676625370979309,-2.425795078277588,-3.184736490249634,2.711805582046509,false
93354.50559691667,-0.658078670501709,0.3668239712715149,0.3273089528083801,-1.4646435976028442,-2.910689353942871,1.9154378175735474,false
93354.51555591667,-0.692472517490387,0.7070205807685852,0.39530307054519653,-0.5980058908462524,-2.628371238708496,1.2614823579788208,false
93354.52551491668,-0.7251617312431335,0.8815366625785828,0.45285382866859436,-0.1478908210992813,-2.291069507598877,0.6934343576431274,false
93354.53547291667,-0.7290834188461304,0.8522364497184753,0.6038653254508972,-0.4189082086086273,-1.9967539310455322,0.28763359785079956,false
93354.54543191667,-0.7219848036766052,0.5727404952049255,0.7995622158050537,-0.7837828397750854,-1.8360174894332886,-0.06400465965270996,false
93354.55539091668,-0.673693060874939,0.2827969789505005,1.0634042024612427,-0.912166953086853,-1.6079646348953247,-0.38348838686943054,false
93354.56534891667,-0.6263731718063354,0.1634526252746582,1.2157270908355713,-0.7642632126808167,-1.2233117818832397,-0.6505533456802368,false
93354.57530791668,-0.6267545223236084,0.14705848693847656,1.291558027267456,-0.40375906229019165,-0.8020936250686646,-0.9429580569267273,false
93354.58526691668,-0.6304188966751099,0.16007888317108154,1.3394887447357178,-0.15573668479919434,-0.39795970916748047,-1.2094073295593262,false
93354.59522591667,-0.6264244914054871,0.13476836681365967,1.3455663919448853,-0.12568531930446625,-0.13193228840827942,-1.4426249265670776,false
93354.60518491667,-0.6273868680000305,0.033209919929504395,1.3649219274520874,-0.6014449596405029,0.012553787790238857,-1.642998456954956,false
93354.61514291668,-0.5726169347763062,-0.12661749124526978,1.4730455875396729,-0.8483335375785828,0.4433528482913971,-1.9191395044326782,false
93354.62510191667,-0.5432218313217163,-0.14733600616455078,1.4999470710754395,-0.90382981300354,0.9030245542526245,-2.035515785217285,false
93354.63506091667,-0.6191577315330505,-0.21543878316879272,1.4938749074935913,-1.0448516607284546,1.0672295093536377,-1.9554461240768433,false
93354.64501991667,-0.6399681568145752,-0.5090348124504089,1.5261452198028564,-0.9218991994857788,1.2589823007583618,-2.1704750061035156,false
93354.65497791667,-0.48682862520217896,-0.6120436191558838,1.4153419733047485,-0.3339720070362091,1.6859512329101562,-2.4224040508270264,false
93354.66493691667,-0.4232814311981201,-0.3912121057510376,1.3411917686462402,0.044171564280986786,2.1010897159576416,-2.6292951107025146,false
93354.67489591667,-0.5006033778190613,-0.3390117883682251,1.2565786838531494,0.10128731280565262,2.4507598876953125,-2.910853862762451,false
93354.68485491668,-0.49727463722229004,-0.38261234760284424,1.0892959833145142,0.10232068598270416,2.4591808319091797,-2.772688388824463,false
93354.69481291667,-0.40611279010772705,-0.5151284337043762,0.9743664264678955,0.0267950389534235,2.3143701553344727,-2.816519260406494,false
93354.70477191667,-0.19041961431503296,-0.7498059868812561,0.8232347369194031,-0.16204099357128143,2.6237525939941406,-3.0647125244140625,false
93354.71473091668,-0.08100473880767822,-0.6529098749160767,0.7189021110534668,-0.18398357927799225,3.0278866291046143,-3.041351556777954,false
93354.72468991668,-0.1508386731147766,-0.5005280375480652,0.7202554941177368,0.29618895053863525,2.9994888305664062,-2.635136127471924,false
93354.73464791667,-0.118689626455307,-0.6103429794311523,0.467983603477478,0.5881105661392212,3.0574045181274414,-2.4649412631988525,false
93354.74460691668,0.2072751820087433,-0.6022504568099976,0.29291632771492004,1.2947505712509155,3.4134793281555176,-2.424438953399658,false
93354.75456591668,0.37675008177757263,-0.19215184450149536,0.1999151110649109,2.237560272216797,3.5797793865203857,-2.437302589416504,false
93354.76452491667,0.5050620436668396,0.0412868857383728,-0.24152588844299316,2.8336384296417236,3.351686716079712,-2.5279698371887207,false
93354.77448291668,0.733890950679779,0.10218918323516846,-0.5692111253738403,3.168750047683716,2.916781425476074,-2.3328235149383545,false
93354.78444191668,0.9198136329650879,0.08063459396362305,-0.7963062524795532,3.3195858001708984,2.5304267406463623,-1.5133183002471924,false
93354.79440091667,1.036566972732544,-0.12054306268692017,-1.068615436553955,3.0991714000701904,2.333735227584839,-0.09765954315662384,false
93354.80435991667,1.1310185194015503,-0.29291534423828125,-1.135487675666809,3.0162429809570312,2.371046543121338,1.1753603219985962,false
93354.81431791667,1.2634029388427734,-0.17398852109909058,-1.1041927337646484,3.2474615573883057,2.366806745529175,1.798835039138794,false
93354.82427691667,1.4682800769805908,0.07683789730072021,-1.1641268730163574,3.0547773838043213,1.9038307666778564,2.00519061088562,false
93354.83423591667,1.7831124067306519,0.1153266429901123,-1.4367097616195679,1.7941449880599976,0.9535051584243774,2.334989547729492,false
93354.84419491667,2.147623062133789,-0.04972696304321289,-1.7281639575958252,-0.5702291131019592,-0.009128204546868801,2.8959476947784424,false
93354.85415291667,2.4264333248138428,-0.23674815893173218,-1.8968286514282227,-2.7677009105682373,-0.6966288089752197,3.539973020553589,false
93354.86411191667,2.390165090560913,-0.3319609761238098,-1.9089547395706177,-4.139639377593994,-1.3164899349212646,4.152965545654297,false
93354.87407091667,2.0052366256713867,-0.39640939235687256,-1.7593517303466797,-4.386695861816406,-1.8899774551391602,4.7783098220825195,false
93354.88402991668,1.6396194696426392,-0.0584104061126709,-1.6993424892425537,-3.1965079307556152,-2.4355592727661133,4.755185127258301,false
93354.89398791667,1.4265270233154297,0.5710427761077881,-1.5480904579162598,-1.6503223180770874,-2.778134346008301,4.376358985900879,false
93354.90394691667,1.0964887142181396,0.8558483123779297,-1.2660927772521973,-0.7339783906936646,-2.8633980751037598,4.148918151855469,false
93354.91390591668,0.6735262870788574,0.9102585911750793,-0.8936954736709595,-0.5186095833778381,-2.9581217765808105,3.825407028198242,true
93354.92386491667,0.31155508756637573,0.9664565920829773,-0.5690107345581055,-0.959464430809021,-3.193058729171753,3.48630690574646,false
93354.93382291668,-0.031164109706878662,0.874980628490448,-0.45162224769592285,-1.9707599878311157,-3.352191209793091,3.274996757507324,false
93354.94378191668,-0.31556910276412964,0.6810263395309448,-0.25440624356269836,-2.5678114891052246,-3.2321386337280273,2.853044271469116,false
93354.95374091667,-0.5164830684661865,0.6076942086219788,0.15149784088134766,-2.25935435295105,-3.005629539489746,2.329894781112671,false
93354.96369991667,-0.6837107539176941,0.6000760197639465,0.40976080298423767,-1.7973212003707886,-2.777343273162842,1.8333781957626343,false
93354.97365791668,-0.7586669921875,0.5660795569419861,0.5328644514083862,-1.2115962505340576,-2.5402283668518066,1.1502918004989624,false
93354.98361691667,-0.7707556486129761,0.617773711681366,0.5863687992095947,-0.6431741714477539,-2.176088571548462,0.5406706929206848,false
93354.99357591667,-0.7507293820381165,0.6371095180511475,0.6551259160041809,-0.3826650381088257,-1.8555259704589844,-0.045736029744148254,false
93355.00353491667,-0.6882266402244568,0.5862067341804504,0.875412106513977,-0.3437615633010864,-1.5710631608963013,-0.6091133952140808,false
93355.01349291667,-0.665877103805542,0.5447028875350952,1.0311927795410156,-0.3841327130794525,-1.2305516004562378,-0.9555085897445679,false
93355.02345191667,-0.6985534429550171,0.45022082328796387,1.1226627826690674,-0.883998453617096,-1.0298283100128174,-1.0253952741622925,false
93355.03341091667,-0.7159355282783508,0.1916271448135376,1.2848964929580688,-1.3429590463638306,-0.8993691802024841,-1.1483477354049683,false
93355.04336991668,-0.6270632147789001,-0.01595968008041382,1.4240403175354004,-1.3561359643936157,-0.7093364596366882,-1.2858638763427734,false
93355.05332791667,-0.5473608374595642,-0.04038113355636597,1.4564732313156128,-1.1393413543701172,-0.454276978969574,-1.4544414281845093,false
93355.06328691667,-0.5485802888870239,-0.02580171823501587,1.434189796447754,-1.1185276508331299,-0.18175409734249115,-1.69286048412323,false
93355.07324591668,-0.577167272567749,-0.03783994913101196,1.4230343103408813,-0.8236786723136902,0.2627708613872528,-1.9255112409591675,false
93355.08320491668,-0.6270755529403687,-0.00318068265914917,1.3570154905319214,-0.7272455096244812,0.6164998412132263,-1.8810408115386963,false
93355.09316291667,-0.6686729192733765,-0.1482701301574707,1.419286847114563,-1.218471884727478,0.6919624209403992,-1.8467952013015747,false
93355.10312191668,-0.619773268699646,-0.5428332090377808,1.5315775871276855,-1.2221882343292236,0.9693714380264282,-2.15767765045166,false
93355.11308091668,-0.471257746219635,-0.5446135997772217,1.4132354259490967,-0.589590311050415,1.4620325565338135,-2.3212473392486572,false
93355.12303991667,-0.44133126735687256,-0.2984687089920044,1.331552267074585,-0.2909555435180664,1.8774898052215576,-2.507688283920288,false
93355.13299791668,-0.4861259460449219,-0.3602464199066162,1.2239205837249756,-0.2074742466211319,2.1106960773468018,-2.6104166507720947,false
93355.14295691668,-0.43046462535858154,-0.4589160680770874,1.1181318759918213,-0.27054136991500854,2.112678050994873,-2.7317585945129395,false
93355.15291591667,-0.2859339118003845,-0.530573308467865,1.0500574111938477,0.0737486258149147,2.2119944095611572,-2.692695140838623,false
93355.16287491667,-0.14218446612358093,-0.5889597535133362,0.9570480585098267,0.07520338147878647,2.4867260456085205,-3.0399367809295654,false
93355.17283291667,-0.08922430872917175,-0.5634969472885132,0.8471400141716003,0.46341902017593384,2.825390577316284,-3.0227904319763184,false
93355.18279191667,-0.13182640075683594,-0.41252601146698,0.8162007927894592,0.6579741835594177,2.930598497390747,-2.85677170753479,false
93355.19275091667,-0.07327014207839966,-0.500288188457489,0.5434165000915527,0.5272353887557983,3.1519036293029785,-2.82490873336792,false
93355.20270991667,0.14607447385787964,-0.4990180730819702,0.5298618674278259,0.8925828337669373,3.5088894367218018,-2.5007283687591553,false
93355.21266791667,0.2539947032928467,-0.28745532035827637,0.3829052448272705,1.4522104263305664,3.6266725063323975,-2.264014482498169,false
93355.22262691667,0.48003560304641724,-0.24084347486495972,0.030481189489364624,1.9889246225357056,3.5679612159729004,-2.217522382736206,false
93355.23258591667,0.731907844543457,-0.09142017364501953,-0.21401512622833252,2.3403146266937256,3.3177576065063477,-1.9884033203125,false
93355.24254491668,0.9081987142562866,0.0043160319328308105,-0.4770328998565674,3.161484718322754,3.0860979557037354,-1.3219025135040283,false
93355.25250291667,1.0774872303009033,0.03583401441574097,-0.8720800876617432,3.778078556060791,3.080023765563965,-0.1333342045545578,false
93355.26246191667,1.3067189455032349,-0.030943095684051514,-1.0191395282745361,3.9006683826446533,3.0984034538269043,0.9253671765327454,false
93355.27242079168,1.5883160829544067,-0.00705265998840332,-1.019937515258789,3.913081645965576,2.774523973464966,1.4075359106063843,false
93355.28237979168,1.8666774034500122,0.17605412006378174,-1.2644357681274414,3.3190901279449463,2.0841064453125,1.6802295446395874,false
93355.29233779167,2.091207981109619,0.19117343425750732,-1.62759268283844,1.5063148736953735,1.2614121437072754,2.2685792446136475,false
93355.30229679168,2.134618043899536,-0.13051199913024902,-1.8772578239440918,-1.1192610263824463,0.4372597336769104,2.979776382446289,false
93355.31225579168,2.082817316055298,-0.437568724155426,-1.9835693836212158,-3.001831293106079,-0.2039029449224472,3.4358155727386475,false
93355.32221479167,2.076714515686035,-0.3766218423843384,-2.0053491592407227,-3.733470916748047,-0.7671753764152527,3.7379276752471924,false
93355.33217279168,2.0158584117889404,-0.12273168563842773,-1.8891236782073975,-3.3882219791412354,-1.3708961009979248,3.9904422760009766,false
93355.34213179167,1.758144736289978,0.25616371631622314,-1.7278249263763428,-2.3779091835021973,-1.959864854812622,4.147373199462891,false
93355.35209079167,1.3838682174682617,0.6427739262580872,-1.5130351781845093,-1.3825854063034058,-2.560060501098633,3.9954888820648193,false
93355.36204979167,0.9876003861427307,0.8341870307922363,-1.2999401092529297,-0.8627700209617615,-2.9197542667388916,3.5905115604400635,false
93355.37200779167,0.5524790287017822,0.958141028881073,-1.095541000366211,-0.8932235240936279,-3.0080997943878174,3.201472282409668,true
93355.38196679167,0.07421541213989258,0.9685041308403015,-0.8399205207824707,-1.5644547939300537,-3.112285852432251,3.0755112171173096,false
93355.39192579167,-0.3709074854850769,0.7932295799255371,-0.5746811628341675,-2.353480339050293,-3.1766624450683594,3.052764892578125,false
93355.40188479167,-0.6868512630462646,0.6213971376419067,-0.25994306802749634,-2.4790070056915283,-3.152118682861328,2.809095859527588,false
93355.41184279167,-0.8646076321601868,0.5473416447639465,0.029912233352661133,-2.244957208633423,-3.0344018936157227,2.4330108165740967,false
93355.42180179167,-0.8827579617500305,0.48474645614624023,0.2541391849517822,-1.8353259563446045,-2.8420612812042236,1.911065697669983,false
93355.43176079167,-0.7668593525886536,0.514510989189148,0.5783024430274963,-1.1872270107269287,-2.565692901611328,1.193101406097412,false
93355.44171979168,-0.6577630043029785,0.627716600894928,0.7746825218200684,-0.4868808686733246,-2.140836238861084,0.4652051329612732,false
93355.45167779167,-0.6301895380020142,0.6955455541610718,0.81376051902771,-0.24562430381774902,-1.7119040489196777,-0.1596670001745224,false
93355.46163679168,-0.6700294017791748,0.6257032155990601,0.8821526765823364,-0.6294273734092712,-1.388713002204895,-0.6511598825454712,false
93355.47159579168,-0.7078984975814819,0.42891114950180054,0.9844943284988403,-1.291669487953186,-1.1945570707321167,-0.9524901509284973,false
93355.48155479167,-0.6912471652030945,0.20580774545669556,1.1139309406280518,-2.0008175373077393,-1.084264874458313,-1.0971235036849976,false
93355.49151279168,-0.6259448528289795,0.026240170001983643,1.2786948680877686,-2.2848052978515625,-0.8689245581626892,-1.3208985328674316,false
93355.50147179168,-0.5699488520622253,-0.05308932065963745,1.3706800937652588,-1.9896031618118286,-0.5199544429779053,-1.567960262298584,false
93355.51143079167,-0.5903424024581909,-0.024976372718811035,1.3390203714370728,-1.3855170011520386,-0.13471515476703644,-1.7209646701812744,false
93355.52138979167,-0.6387194991111755,-0.00560450553894043,1.3081796169281006,-0.9967303276062012,0.1520199477672577,-1.9805039167404175,false
93355.53134779168,-0.636165201663971,-0.0479159951210022,1.3615567684173584,-0.5566917061805725,0.5961489081382751,-2.2077929973602295,false
93355.54130679167,-0.6364363431930542,-0.03296619653701782,1.3307470083236694,-0.3464296758174896,1.058842420578003,-2.1258623600006104,false
93355.55126579167,-0.6671295762062073,-0.24339216947555542,1.4149799346923828,-0.674902617931366,1.0488390922546387,-2.1420693397521973,false
93355.56122479167,-0.5906330943107605,-0.6483269333839417,1.5223641395568848,-0.3312323987483978,1.3278071880340576,-2.319437265396118,false
93355.57118279167,-0.39822322130203247,-0.5783210396766663,1.3164043426513672,-0.2375035285949707,1.606640100479126,-2.5792152881622314,false
93355.58114179167,-0.34982216358184814,-0.3902862071990967,1.2805662155151367,-0.3019813895225525,2.1517882347106934,-2.721926689147949,false
93355.59110079167,-0.42531418800354004,-0.39632076025009155,1.204713225364685,-0.678811252117157,2.3062164783477783,-2.7483081817626953,false
93355.60105979168,-0.4515909254550934,-0.5291960835456848,1.0724029541015625,-0.36029255390167236,2.241908550262451,-2.5147454738616943,false
93355.61101779167,-0.26537618041038513,-0.7226283550262451,0.9484044313430786,-0.3133058547973633,2.013948917388916,-2.659073829650879,false
93355.62097679167,-0.02154099941253662,-0.8767786026000977,0.7726213932037354,-0.2702532708644867,2.380009889602661,-2.8422651290893555,false
93355.63093579168,0.014104515314102173,-0.6531778573989868,0.7136482000350952,0.05818691849708557,2.701923370361328,-2.6460883617401123,false
93355.64089479168,-0.1453699767589569,-0.5046324729919434,0.7058712244033813,1.0475504398345947,2.763840913772583,-2.1123294830322266,false
93355.65085279167,-0.10051688551902771,-0.6364805698394775,0.44394800066947937,1.6230218410491943,2.962949275970459,-2.032357692718506,false
93355.66081179168,0.2111855149269104,-0.555552065372467,0.34117424488067627,2.258404493331909,3.5107369422912598,-2.084784507751465,false
93355.67077079168,0.33825159072875977,-0.08506190776824951,0.3110417425632477,2.6431972980499268,3.781102418899536,-2.1812853813171387,false
93355.68072979167,0.4496077001094818,0.08856236934661865,-0.1247999370098114,2.22554349899292,3.484488010406494,-2.215592861175537,false
93355.69068779168,0.7115097045898438,-0.01261371374130249,-0.3874705135822296,1.5914386510849,2.9740357398986816,-1.8134045600891113,false
93355.70064679167,0.985378623008728,-0.1431490182876587,-0.4918768107891083,1.3129841089248657,2.616060972213745,-0.9103872776031494,false
93355.71060579167,1.1926026344299316,-0.33313900232315063,-0.7077001333236694,1.5548182725906372,2.5510318279266357,0.22819344699382782,false
93355.72056479167,1.3545162677764893,-0.37324386835098267,-0.853939414024353,2.184110164642334,2.483553171157837,1.0728121995925903,false
93355.73052279167,1.535668134689331,-0.1094704270362854,-0.991049587726593,3.326972723007202,2.2520482540130615,1.362665057182312,false
93355.74048179167,1.7485713958740234,0.3459516763687134,-1.2778120040893555,3.9167978763580322,1.7873094081878662,1.436553955078125,false
93355.75044079167,1.9285495281219482,0.5605499148368835,-1.6608796119689941,2.9005134105682373,1.2807164192199707,1.8649327754974365,false
93355.76039979167,1.9706124067306519,0.4352338910102844,-1.907240867614746,0.7209796905517578,0.5828393697738647,2.4509949684143066,false
93355.77035779167,1.9181841611862183,0.12530505657196045,-1.9482333660125732,-1.4350104331970215,-0.1396980732679367,3.1322333812713623,false
93355.78031679167,1.8933137655258179,-0.18113553524017334,-1.9855741262435913,-3.239720106124878,-0.9377206563949585,3.7837815284729004,false
93355.79027579167,1.8979041576385498,-0.3672562837600708,-1.80464768409729,-4.023621082305908,-1.7976369857788086,4.150972366333008,false
93355.80023479168,1.8760249614715576,-0.11159837245941162,-1.623184323310852,-3.3648312091827393,-2.4331250190734863,4.281834602355957,false
93355.81019279167,1.7053266763687134,0.5366994142532349,-1.518311619758606,-2.163058042526245,-2.8697173595428467,4.180908203125,false
93355.82015179168,1.3575249910354614,0.9852505922317505,-1.4303079843521118,-1.2421557903289795,-3.1049270629882812,3.8840975761413574,true
93355.83011079168,0.9350576996803284,1.1521580219268799,-1.2458208799362183,-0.8536666035652161,-3.204786539077759,3.5228288173675537,false
93355.84006979167,0.5238375067710876,1.173187494277954,-1.0000020265579224,-1.174099326133728,-3.3749871253967285,3.3315770626068115,false
93355.85002779168,0.16426628828048706,1.0063050985336304,-0.7207576632499695,-2.066210985183716,-3.7101409435272217,3.3787972927093506,false
93355.85998679168,-0.12072509527206421,0.7389864325523376,-0.35511520504951477,-2.5867671966552734,-3.9983794689178467,3.283360719680786,false
93355.86994579167,-0.34367823600769043,0.5831471681594849,-0.028451085090637207,-2.281562328338623,-3.951154947280884,2.9705164432525635,false
93355.87990479167,-0.5243398547172546,0.5932648777961731,0.233492910861969,-1.6201558113098145,-3.5319087505340576,2.4866836071014404,false
93355.88986279168,-0.6341873407363892,0.6881850361824036,0.5249878764152527,-0.8236002922058105,-3.0557713508605957,1.759858250617981,false
93355.89982179167,-0.7125251889228821,0.8076743483543396,0.7240139245986938,-0.05676383897662163,-2.5841920375823975,1.0542241334915161,false
93355.90978079167,-0.7762272953987122,0.8335621953010559,0.6881498098373413,0.030027516186237335,-2.232327938079834,0.5226659774780273,false
93355.91973979167,-0.7368004322052002,0.6943662762641907,0.7546463012695312,-0.12576867640018463,-2.113651752471924,-0.019895406439900398,false
93355.92969779167,-0.5951751470565796,0.538158655166626,0.9739158749580383,-0.3987341523170471,-2.071963310241699,-0.3969918191432953,false
93355.93965679167,-0.45986366271972656,0.3875037431716919,1.05021333694458,-0.6031314134597778,-1.8560067415237427,-0.6580809354782104,false
93355.94961579167,-0.4132375717163086,0.23278075456619263,1.177312970161438,-0.6108742952346802,-1.4309790134429932,-0.8724856376647949,false
93355.95957479168,-0.49289387464523315,0.12383449077606201,1.4424934387207031,-0.5538152456283569,-0.9657148718833923,-1.1909462213516235,false
93355.96953279167,-0.6380610466003418,0.06455022096633911,1.5929133892059326,-0.9098734855651855,-0.6458788514137268,-1.390707015991211,false
93355.97949179167,-0.7246531248092651,-0.03340035676956177,1.6203720569610596,-1.6371172666549683,-0.5221755504608154,-1.508762001991272,false
93355.98945079168,-0.6803783774375916,-0.22105491161346436,1.693830966949463,-2.1922898292541504,-0.3867308795452118,-1.639975666999817,false
93355.99940979168,-0.5564734935760498,-0.2964942455291748,1.66361403465271,-1.7859910726547241,0.07021035999059677,-1.900350570678711,false
93356.00936779167,-0.5020483136177063,-0.17183583974838257,1.4259326457977295,-1.5940818786621094,0.46144336462020874,-2.021794557571411,false
93356.01932679168,-0.5386421084403992,-0.17958247661590576,1.2927932739257812,-1.3125674724578857,0.9218971133232117,-2.3763585090637207,false
93356.02928579168,-0.5092470645904541,-0.24653542041778564,1.187991976737976,-1.146072268486023,1.2639663219451904,-2.6756558418273926,false
93356.03924479167,-0.4690336585044861,-0.20800817012786865,1.1433461904525757,-1.0831619501113892,1.6023802757263184,-2.765441656112671,false
93356.04920279168,-0.464977502822876,-0.34068620204925537,1.2720211744308472,-1.0930585861206055,1.800679326057434,-2.9045329093933105,false
93356.05916179167,-0.4413601756095886,-0.5317562222480774,1.2458133697509766,-0.9365813136100769,2.0762054920196533,-3.158857583999634,false
93356.06912079167,-0.3150591552257538,-0.5253061652183533,1.108025074005127,-0.6723379492759705,2.2989211082458496,-3.2941672801971436,false
93356.07907979167,-0.2267838418483734,-0.45539289712905884,1.057529091835022,-0.4658034145832062,2.4860787391662598,-3.4138081073760986,false
93356.08903779167,-0.11650890111923218,-0.5623152256011963,0.9011403322219849,-0.4277340769767761,2.711885452270508,-3.6315832138061523,false
93356.09899679167,-0.016443520784378052,-0.5685271620750427,0.8228919506072998,-0.21856924891471863,2.990670680999756,-3.7298600673675537,false
93356.10895579167,0.05850300192832947,-0.4876025319099426,0.7515521049499512,0.027924418449401855,3.0580344200134277,-3.8007237911224365,false
93356.11891479167,0.1589917242527008,-0.4703487753868103,0.534809947013855,-0.0592089518904686,2.9936399459838867,-3.9076900482177734,false
93356.12887279167,0.31456372141838074,-0.4978622794151306,0.42586296796798706,0.10272988677024841,3.199772357940674,-3.895730495452881,false
93356.13883179167,0.36026525497436523,-0.42305856943130493,0.3528026044368744,0.186409130692482,3.6390483379364014,-3.9024410247802734,false
93356.14879079167,0.37154507637023926,-0.40017277002334595,0.1499517261981964,0.17708700895309448,4.078995227813721,-3.7030999660491943,false
93356.15874979168,0.4764556288719177,-0.35572606325149536,0.0883779227733612,0.47447067499160767,4.273235321044922,-3.480783224105835,false
93356.16870779167,0.7796543836593628,-0.22875410318374634,-0.01846739649772644,1.3557344675064087,4.042767524719238,-3.5030298233032227,false
93356.17866679167,1.1862435340881348,0.01847904920578003,-0.1921311318874359,2.294121503829956,3.5563817024230957,-3.6586809158325195,false
93356.18862579168,1.4707475900650024,0.23465192317962646,-0.36254629492759705,2.6269638538360596,3.26027774810791,-3.6490402221679688,false
93356.19858479167,1.539431095123291,0.291282057762146,-0.4619743227958679,2.545734167098999,3.3292031288146973,-3.2730541229248047,false
93356.20854279168,1.4397540092468262,0.2523542046546936,-0.4707803726196289,2.368680477142334,3.414433479309082,-2.6938507556915283,false
93356.21850179168,1.3189244270324707,0.15699118375778198,-0.5123789310455322,2.1547598838806152,3.286803722381592,-1.8248752355575562,false
93356.22846079167,1.3048979043960571,0.13885903358459473,-0.5965203046798706,1.95473313331604,2.999528408050537,-0.8014041185379028,false
93356.23841979167,1.3792178630828857,0.22604650259017944,-0.6020484566688538,2.1202163696289062,2.6218554973602295,-0.040319375693798065,false
93356.24837779168,1.4163490533828735,0.38362956047058105,-0.5923035144805908,2.570481061935425,2.2586140632629395,0.3576144278049469,false
93356.25833679167,1.264412522315979,0.5380808115005493,-0.5937643051147461,2.790140390396118,2.110757350921631,0.399316668510437,false
93356.26829579167,0.9221530556678772,0.6237956881523132,-0.6640188694000244,2.599242687225342,2.231145143508911,0.27283331751823425,false
93356.27825479167,0.5434572100639343,0.5716282725334167,-0.7247424721717834,1.9846903085708618,2.349748373031616,0.1675022691488266,false
93356.28821279167,0.2595385015010834,0.360995888710022,-0.7666085958480835,1.2902870178222656,2.1992976665496826,0.12425225973129272,false
93356.29817179167,0.11214570701122284,0.1864679455757141,-0.8210406303405762,0.8839269280433655,1.6732439994812012,-0.08965276926755905,false
93356.30813079167,0.10958196222782135,0.15281373262405396,-0.933983564376831,0.8280165195465088,0.8152640461921692,-0.39503347873687744,false
93356.31808979168,0.1556606888771057,0.202825665473938,-1.0098857879638672,0.7716335654258728,0.09865012764930725,-0.4354793131351471,false
93356.32804779167,0.12844318151474,0.25827932357788086,-0.8892492651939392,0.5090829133987427,-0.2616116404533386,-0.5306702852249146,false
93356.33800679167,0.012079492211341858,0.22872328758239746,-0.6227944493293762,0.08476093411445618,-0.3568175137042999,-0.7688533663749695,false
93356.34796579168,-0.19241775572299957,0.09744864702224731,-0.4421737790107727,-0.4777122735977173,-0.22881509363651276,-0.8843264579772949,false
93356.35792479168,-0.4171352684497833,-0.08395230770111084,-0.3753513693809509,-0.9945186972618103,-0.042912401258945465,-0.9059675335884094,false
93356.36788279167,-0.549331545829773,-0.22938042879104614,-0.25967493653297424,-1.201350212097168,0.10305839031934738,-0.9664191603660583,false
93356.37784179168,-0.5754324197769165,-0.31961578130722046,-0.18273141980171204,-1.1184927225112915,0.16752347350120544,-0.9876829385757446,false
93356.38780079168,-0.5138277411460876,-0.37242478132247925,-0.15088015794754028,-0.6541109681129456,0.03209133818745613,-1.060868263244629,false
93356.39775979167,-0.39024442434310913,-0.34269511699676514,-0.08391168713569641,0.27846774458885193,-0.14698714017868042,-1.1676855087280273,false
93356.40771779168,-0.2829855680465698,-0.20866936445236206,-0.11532479524612427,1.3366247415542603,-0.16760586202144623,-1.268506407737732,false
93356.41767679167,-0.2571421265602112,-0.08520042896270752,-0.13401198387145996,2.1006269454956055,0.011532865464687347,-1.36759352684021,false
93356.42763579167,-0.30454498529434204,-0.02701401710510254,-0.09164202213287354,2.2649900913238525,0.26806050539016724,-1.4131892919540405,false
93356.43759479167,-0.3657985031604767,-0.06595903635025024,-0.01932203769683838,1.798791766166687,0.3886943459510803,-1.2968593835830688,false
93356.44755279167,-0.3705119788646698,-0.21455645561218262,0.06582790613174438,1.005378246307373,0.33363106846809387,-1.0123493671417236,false
93356.45751179167,-0.2914636433124542,-0.3820415735244751,0.1598438024520874,0.23086242377758026,0.2555965185165405,-0.6848390698432922,false
93356.46747079167,-0.17759984731674194,-0.4495217800140381,0.22067409753799438,-0.3655272126197815,0.2850590646266937,-0.3442727029323578,false
93356.47742979167,-0.09182529896497726,-0.4201304316520691,0.2373073697090149,-0.7299367785453796,0.3888678550720215,-0.007208924274891615,false
93356.48738779167,-0.055107682943344116,-0.3427554965019226,0.24978524446487427,-0.788419246673584,0.5264509916305542,0.3082025647163391,false
93356.49734679167,-0.029405325651168823,-0.21781200170516968,0.26224714517593384,-0.6727948784828186,0.6710279583930969,0.5816883444786072,false
93356.50730579167,0.01602616161108017,-0.08756566047668457,0.23847538232803345,-0.5530884861946106,0.780412495136261,0.7234691977500916,false
93356.51726479168,0.06721828132867813,-0.0009869933128356934,0.1957421898841858,-0.6262407302856445,0.8606138229370117,0.7966951727867126,false
93356.52722279167,0.11323624849319458,0.021796882152557373,0.16056391596794128,-0.9402508735656738,0.9071898460388184,0.7544662356376648,false
93356.53718179167,0.14501483738422394,-0.00861269235610962,0.1535511314868927,-1.056770920753479,0.9405732154846191,0.7226771116256714,false
93356.54714079168,0.14884206652641296,-0.028918981552124023,0.11506849527359009,-1.145885705947876,0.9538655877113342,0.8166770935058594,false
93356.55709979167,0.15094123780727386,-0.06805521249771118,0.014168113470077515,-0.7400995492935181,0.9481840133666992,0.6774038672447205,false
93356.56705779168,0.1719387173652649,-0.05302286148071289,-0.13626348972320557,-0.6680570244789124,1.0265917778015137,0.5945587754249573,false
93356.57701679168,0.1662556380033493,-0.1867859959602356,-0.052545249462127686,-1.469928503036499,0.5167161226272583,0.8523158431053162,false
93356.58697579167,0.13507245481014252,-0.6724163293838501,0.257301390171051,-2.165290355682373,0.0191899873316288,1.0242269039154053,false
93356.59693479167,0.14278921484947205,-0.740782618522644,-0.025539517402648926,-1.1803663969039917,0.0012189754052087665,0.7407419085502625,false
93356.60689279168,0.18577659130096436,-0.13426709175109863,-0.11098730564117432,0.9739636182785034,0.13868628442287445,0.40829524397850037,false
93356.61685179167,0.18354012072086334,0.4020230770111084,-0.05765855312347412,2.2190639972686768,0.2342991679906845,0.14058463275432587,false
93356.62681079167,0.16320262849330902,0.5091025233268738,-0.1836598515510559,2.20268177986145,0.47809186577796936,-0.01368190348148346,false
93356.63676979167,0.1234351396560669,0.4545067548751831,-0.04838398098945618,1.2328890562057495,0.7453319430351257,-0.04413525015115738,false
93356.64672779167,0.07795558869838715,0.18958699703216553,0.10533341765403748,-0.3032453954219818,0.8522533774375916,0.10241291671991348,false
93356.65668679167,0.0328388512134552,-0.12014549970626831,0.08584704995155334,-1.4336576461791992,0.8068203926086426,0.3574303984642029,false
93356.66664579167,0.04295901954174042,-0.21628713607788086,0.10810291767120361,-1.7935668230056763,0.6762605309486389,0.5088271498680115,false
93356.67660479168,0.129778191447258,-0.1526172161102295,0.06781339645385742,-1.5643099546432495,0.6418843865394592,0.4240766167640686,false
93356.68656279167,0.20037099719047546,0.035764992237091064,-0.05066591501235962,-0.7442318797111511,0.8173781633377075,0.19731885194778442,false
93356.69652179167,0.1778562366962433,0.3046687841415405,-0.05291852355003357,0.3783833086490631,1.0330239534378052,-0.08497351408004761,false
93356.70648079168,0.09894347190856934,0.4411201477050781,-0.07306182384490967,1.209562063217163,1.1412752866744995,-0.2806631326675415,false
93356.71643879167,0.01769852638244629,0.37286126613616943,-0.14569434523582458,1.447607159614563,1.1187539100646973,-0.3470425605773926,false
93356.72639779167,-0.027493715286254883,0.21678149700164795,-0.14932140707969666,1.4147870540618896,1.0113365650177002,-0.4338749349117279,false
93356.73635679168,-0.029176145792007446,0.12453001737594604,-0.11181360483169556,1.4469130039215088,0.9354550242424011,-0.590359628200531,false
93356.74631579168,-0.016130656003952026,0.14113998413085938,-0.1031302809715271,1.6293083429336548,0.914091944694519,-0.7357674241065979,false
93356.75627379167,-0.006264179944992065,0.23751473426818848,-0.09499412775039673,1.7940890789031982,0.9018300175666809,-0.8572013974189758,false
93356.76623279168,-0.005331963300704956,0.3270118236541748,-0.09127575159072876,1.798832654953003,0.9344982504844666,-1.0155314207077026,false
93356.77619179168,-0.010002896189689636,0.36329251527786255,-0.05683797597885132,1.7285633087158203,1.0513153076171875,-1.1566555500030518,false
93356.78615079167,-0.025082990527153015,0.347827672958374,0.0036964118480682373,1.5469039678573608,1.2001162767410278,-1.2537528276443481,false
93356.79610879168,-0.05101674795150757,0.28751879930496216,0.04229921102523804,1.3854122161865234,1.3676061630249023,-1.329367756843567,false
93356.80606779167,-0.08256325125694275,0.23167794942855835,0.04998260736465454,1.3729792833328247,1.5356366634368896,-1.4669089317321777,false
93356.81602679167,-0.10743987560272217,0.23135793209075928,0.022496938705444336,1.63030207157135,1.6665215492248535,-1.6506561040878296,false
93356.82598579167,-0.1143435388803482,0.2751502990722656,-0.01986759901046753,2.024249792098999,1.7650654315948486,-1.8153960704803467,false
93356.83594379167,-0.10121893882751465,0.32218897342681885,-0.056794822216033936,2.503835916519165,1.807722806930542,-2.037959575653076,false
93356.84590279167,-0.08347541093826294,0.3702303171157837,-0.07873594760894775,2.9375455379486084,1.8259897232055664,-2.243272066116333,false
93356.85586179167,-0.07080301642417908,0.3871675133705139,-0.0945703387260437,3.2188777923583984,1.8219386339187622,-2.3781189918518066,false
93356.86582079167,-0.061683133244514465,0.34544485807418823,-0.10345149040222168,3.334731340408325,1.7622406482696533,-2.4911463260650635,false
93356.87577879167,-0.054277971386909485,0.26484817266464233,-0.097697913646698,3.216088056564331,1.682792067527771,-2.5356528759002686,false
93356.88573779167,-0.0629909336566925,0.1654018759727478,-0.07500410079956055,2.992739677429199,1.6513094902038574,-2.536391258239746,false
93356.89569679167,-0.08190152049064636,0.10028457641601562,-0.02693319320678711,3.04270601272583,1.710929274559021,-2.594175100326538,false
93356.90565579168,-0.1029425710439682,0.11686384677886963,0.005829513072967529,3.453486680984497,1.8664991855621338,-2.7041125297546387,false
93356.91561379167,-0.12294645607471466,0.19918298721313477,0.009530603885650635,4.2411675453186035,1.9623832702636719,-2.871293306350708,false
93356.92557279168,-0.13295520842075348,0.34276407957077026,-0.0017455816268920898,4.989957809448242,1.9559983015060425,-3.0218124389648438,false
93356.93553179168,-0.11900761723518372,0.4233444333076477,-0.0018036961555480957,5.343989372253418,1.8672791719436646,-3.096998691558838,false
93356.94549079167,-0.08026912808418274,0.4133034944534302,0.07309985160827637,5.277414798736572,1.8033572435379028,-3.1316299438476562,false
93356.95544879168,-0.047798678278923035,0.36151766777038574,0.18793505430221558,4.902392387390137,1.8083597421646118,-3.2143523693084717,false
93356.96540779168,-0.03457091748714447,0.272752046585083,0.28328704833984375,4.343027591705322,1.9030998945236206,-3.3080174922943115,false
93356.97536679167,-0.03741230070590973,0.1990300714969635,0.3218521475791931,3.8439314365386963,1.9918558597564697,-3.4276936054229736,false
93356.98532579167,-0.02915404736995697,0.16130918264389038,0.3216203451156616,3.6463823318481445,2.0304906368255615,-3.5242397785186768,false
93356.99528379168,-0.013335540890693665,0.17477744817733765,0.27524930238723755,3.8092687129974365,2.0152063369750977,-3.564422607421875,false
93357.00524279167,0.013859108090400696,0.23076581954956055,0.17906999588012695,4.049002647399902,1.8710936307907104,-3.553614854812622,false
93357.01520179167,0.053558990359306335,0.26573723554611206,0.0780179500579834,4.158978462219238,1.6475870609283447,-3.5240161418914795,false
93357.02516079167,0.09911386668682098,0.278535395860672,0.012810051441192627,4.104461669921875,1.4099286794662476,-3.494783401489258,false
93357.03511879167,0.13490279018878937,0.27198994159698486,0.011673331260681152,3.8757998943328857,1.2274842262268066,-3.415410280227661,false
93357.04507779167,0.14740972220897675,0.22397130727767944,0.061308979988098145,3.5787036418914795,1.0595849752426147,-3.3471250534057617,false
93357.05503679167,0.13305431604385376,0.14829494059085846,0.10558032989501953,3.2824368476867676,0.9272585511207581,-3.2160167694091797,false
93357.06499579168,0.09413136541843414,0.0895828902721405,0.11756396293640137,3.056518793106079,0.9004586338996887,-3.005802869796753,false
93357.07495379167,0.06031116843223572,0.06564359366893768,0.15753531455993652,2.9001944065093994,0.9505801796913147,-2.9115631580352783,false
93357.08491279167,0.04416930675506592,0.06698158383369446,0.1749916672706604,2.749666452407837,0.96071457862854,-2.989703893661499,false
93357.09487179168,0.04351112246513367,0.08590391278266907,0.13827556371688843,2.568760395050049,0.8982515335083008,-3.064283847808838,false
93357.10483079168,0.07326731085777283,0.10477845370769501,0.1287745237350464,2.4109253883361816,0.7568837404251099,-3.0598506927490234,false
93357.11478879167,0.1186099499464035,0.09205389022827148,0.11997145414352417,2.2729876041412354,0.558408796787262,-2.9531569480895996,false
93357.12474779168,0.15088319778442383,0.037812359631061554,0.10120463371276855,2.118093729019165,0.3883183002471924,-2.7728378772735596,false
93357.13470679168,0.1456783413887024,-0.020605802536010742,0.10204261541366577,1.9922091960906982,0.32678481936454773,-2.617610216140747,false
93357.14466579167,0.1066051721572876,-0.041365593671798706,0.12119954824447632,1.8680895566940308,0.3073780834674835,-2.476623296737671,false
93357.15462379168,0.05260036885738373,-0.021847430616617203,0.09969514608383179,1.7861664295196533,0.23095223307609558,-2.3352808952331543,false
93357.16458279167,0.03802192211151123,0.020443465560674667,0.08433705568313599,1.7065951824188232,0.10383743047714233,-2.1817331314086914,false
93357.17454179167,0.07449840009212494,0.028836224228143692,0.10183954238891602,1.5679928064346313,-0.02305573783814907,-2.0530166625976562,false
93357.18449979168,0.10881039500236511,0.0035670995712280273,0.08743447065353394,1.431281566619873,-0.12193731218576431,-1.9476385116577148,false
93357.19445879167,0.11979509890079498,-0.022799115628004074,0.09598255157470703,1.3008981943130493,-0.1750277578830719,-1.8193447589874268,false
93357.20441779167,0.11530494689941406,-0.05080042779445648,0.12157398462295532,1.1949007511138916,-0.20310387015342712,-1.6890535354614258,false
93357.21437679167,0.10714298486709595,-0.0844600573182106,0.151142418384552,1.0621609687805176,-0.22372286021709442,-1.579543948173523,false
93357.22433479167,0.09995254874229431,-0.1077224463224411,0.16697442531585693,1.0115902423858643,-0.22230659425258636,-1.5009527206420898,false
93357.23429379167,0.09215593338012695,-0.08896184712648392,0.1771399974822998,0.9779517650604248,-0.2197655439376831,-1.4175446033477783,false
93357.24425279167,0.08149345219135284,-0.04683578014373779,0.1587756872177124,0.9715718626976013,-0.21611593663692474,-1.3265769481658936,false
93357.25421179167,0.08024094998836517,-0.01205049455165863,0.13339799642562866,0.9564947485923767,-0.20625998079776764,-1.2593204975128174,false
93357.26416979167,0.0930006206035614,-0.012564234435558319,0.12138432264328003,0.8827206492424011,-0.19790111482143402,-1.2149622440338135,false
93357.27412900001,0.10409243404865265,-0.02498239278793335,0.10498350858688354,0.8105606436729431,-0.17150452733039856,-1.167699933052063,false
93357.284088,0.1111346036195755,-0.03487122803926468,0.11862987279891968,0.692817211151123,-0.1571468859910965,-1.0956166982650757,false
93357.294047,0.10753852128982544,-0.06887069344520569,0.1295343041419983,0.49890005588531494,-0.15001507103443146,-1.0023517608642578,false
93357.30400500001,0.10161429643630981,-0.1217426061630249,0.15634489059448242,0.30633431673049927,-0.13090290129184723,-0.9362933039665222,false
93357.313964,0.08483219146728516,-0.1579040288925171,0.18952679634094238,0.21363569796085358,-0.06726734340190887,-0.8581162095069885,false
93357.323923,0.05152595043182373,-0.14685648679733276,0.2110985517501831,0.26167964935302734,0.0408647246658802,-0.7902878522872925,false
93357.333882,0.008969306945800781,-0.06743411719799042,0.21518582105636597,0.44309118390083313,0.18647724390029907,-0.7177305817604065,false
93357.34384,-0.021734625101089478,0.03258813917636871,0.21322381496429443,0.576278030872345,0.3216555714607239,-0.678451657295227,false
93357.353799,-0.01865038275718689,0.06464595347642899,0.19685113430023193,0.5364317893981934,0.3640911877155304,-0.7040902376174927,false
93357.363758,0.013997167348861694,0.02523072063922882,0.1643809676170349,0.36692824959754944,0.3432317078113556,-0.729487955570221,false
93357.37371700001,0.04892455041408539,-0.04647932946681976,0.13379496335983276,0.16748583316802979,0.28682422637939453,-0.7208513021469116,false
93357.383675,0.06461675465106964,-0.10186776518821716,0.10919445753097534,0.0646287053823471,0.25898727774620056,-0.643714964389801,false
93357.39363400001,0.0523378849029541,-0.11515012383460999,0.11447852849960327,0.03713642433285713,0.3281850516796112,-0.566876232624054,false
93357.40359300001,0.013821423053741455,-0.0927915871143341,0.14263075590133667,0.08454415947198868,0.44465652108192444,-0.5417287945747375,false
93357.41355200001,-0.042999401688575745,-0.02890963852405548,0.13584774732589722,0.18795569241046906,0.5751523971557617,-0.500049352645874,false
93357.42351000001,-0.07628220319747925,0.038887351751327515,0.11513334512710571,0.22780270874500275,0.6105759143829346,-0.48512500524520874,false
93357.43346900001,-0.04967886209487915,0.040030546486377716,0.07600420713424683,0.1183188259601593,0.5055163502693176,-0.5050981640815735,false
93357.443428,0.013093248009681702,-0.0035387352108955383,0.01580101251602173,0.035542991012334824,0.3654482066631317,-0.49084702134132385,false
93357.453387,0.05771002173423767,-0.02598758041858673,-0.02753549814224243,0.07256752252578735,0.2802179157733917,-0.46584197878837585,false
93357.46334500001,0.06743647158145905,-0.014680899679660797,-0.027182161808013916,0.1066698282957077,0.27951300144195557,-0.42130592465400696,false
93357.473304,0.0273125022649765,0.021258674561977386,-0.010362803936004639,0.09148614853620529,0.3156771957874298,-0.3490682542324066,false
93357.483263,-0.03340157866477966,0.060610584914684296,0.014356732368469238,0.10469915717840195,0.3549098074436188,-0.30164748430252075,false
93357.493222,-0.062483787536621094,0.05928425490856171,0.0363730788230896,0.10584697872400284,0.35901638865470886,-0.309663325548172,false
93357.50318,-0.052072301506996155,0.02526840567588806,0.012181460857391357,0.09526091068983078,0.27929893136024475,-0.37617602944374084,false
93357.513139,-0.012249007821083069,0.006004340946674347,-0.0489385724067688,0.11462608724832535,0.17141428589820862,-0.43431684374809265,false
93357.523098,0.033642858266830444,0.005869604647159576,-0.09745776653289795,0.21926674246788025,0.11908795684576035,-0.4669528007507324,false
93357.533056,0.05673474073410034,0.011515244841575623,-0.10470306873321533,0.28500670194625854,0.11532550305128098,-0.45557352900505066,false
93357.543015,0.04558400809764862,0.010523252189159393,-0.08197468519210815,0.21921434998512268,0.13228371739387512,-0.39022567868232727,false
93357.552974,0.0168808251619339,-0.012656323611736298,-0.038305580615997314,0.07707685232162476,0.14045822620391846,-0.3034196197986603,false
93357.56293300001,-0.006435588002204895,-0.058504968881607056,0.0034149885177612305,-0.03837437927722931,0.11801736056804657,-0.2312774956226349,false
93357.572891,-0.014292463660240173,-0.10288958996534348,0.01165926456451416,-0.0493173748254776,0.09995866566896439,-0.18714503943920135,false
93357.58285,-0.006158396601676941,-0.0987040176987648,-0.0032781362533569336,0.04708665981888771,0.08383163064718246,-0.18746142089366913,false
93357.59280900001,0.008060440421104431,-0.03903716802597046,-0.029767215251922607,0.23371946811676025,0.0925426334142685,-0.2259015142917633,false
93357.60276800001,0.01906377077102661,0.02964477241039276,-0.04999136924743652,0.37973257899284363,0.10689360648393631,-0.2537163496017456,false
93357.612726,0.027019023895263672,0.06746934354305267,-0.05197644233703613,0.39074018597602844,0.0897984430193901,-0.2161005288362503,false
93357.62268500001,0.028483718633651733,0.065858855843544,-0.04187881946563721,0.2577973008155823,0.04902944341301918,-0.16985046863555908,false
93357.63264400001,0.03409896790981293,0.022941336035728455,-0.013385295867919922,0.09704816341400146,0.019473480060696602,-0.11951028555631638,false
93357.642603,0.035655513405799866,-0.016703926026821136,0.002791166305541992,-0.08191732317209244,0.032731760293245316,-0.002603636123239994,false
93357.65256100001,0.03882908821105957,-0.02388804405927658,0.012309491634368896,-0.0859600082039833,0.08219598233699799,0.014529078267514706,false
93357.66252000001,0.07202981412410736,-0.014292798936367035,0.060425758361816406,-0.01917591504752636,0.14382898807525635,-0.01230892725288868,false
93357.672479,0.10473223030567169,-0.004763282835483551,0.08917391300201416,0.08248399943113327,0.20756228268146515,-0.021830162033438683,false
93357.682438,0.10077162086963654,0.01686597615480423,0.08158600330352783,0.18694649636745453,0.2621605396270752,-0.010629172436892986,false
93357.692396,0.09020139276981354,0.02574753761291504,0.09555131196975708,0.22969622910022736,0.2918722331523895,-0.004566652234643698,false
93357.702355,0.07224999368190765,0.011029757559299469,0.07480031251907349,0.1978733092546463,0.2737677991390228,-0.010330798104405403,false
93357.712314,0.05975817143917084,0.005249485373497009,0.03735053539276123,0.15518389642238617,0.23461268842220306,-0.02014308236539364,false
93357.722273,0.05506192147731781,0.03004058450460434,0.015701889991760254,0.13224263489246368,0.2313881367444992,-0.00710717448964715,false
93357.732231,0.0468880832195282,0.07158435136079788,0.013187050819396973,0.0832202360033989,0.24181413650512695,-0.021956827491521835,false
93357.74219,0.038632214069366455,0.07560538500547409,0.030520141124725342,-0.012864223681390285,0.20311574637889862,-0.02678993158042431,false
93357.752149,0.029431521892547607,0.04294304549694061,0.038976192474365234,-0.04328911006450653,0.1526646763086319,0.018803618848323822,false
93357.76210800001,0.013458877801895142,0.020195044577121735,0.030639350414276123,0.018675725907087326,0.11665476113557816,0.05332377925515175,false
93357.772066,-0.0029626190662384033,0.03083127737045288,0.007920563220977783,0.07420236617326736,0.11966519802808762,0.04986080527305603,false
93357.78202500001,-0.021855562925338745,0.059845246374607086,-0.02166825532913208,0.12230837345123291,0.14342884719371796,0.014421320520341396,false
93357.79198400001,-0.029222726821899414,0.08287346363067627,-0.023802220821380615,0.13564196228981018,0.15396557748317719,-0.007178164552897215,false
93357.801942,-0.027014464139938354,0.07204164564609528,-0.012258172035217285,0.09358212351799011,0.14616677165031433,0.009375511668622494,false
93357.81190100001,-0.02226284146308899,0.03911823779344559,-0.004273533821105957,0.026641108095645905,0.13900066912174225,0.03454280272126198,false
93357.82186000001,-0.021167337894439697,0.022238418459892273,0.005296230316162109,-0.05263453722000122,0.12964099645614624,0.04466893896460533,false
93357.831819,-0.023345768451690674,0.02171681821346283,0.01364046335220337,-0.13618861138820648,0.1459253579378128,0.06350748986005783,false
93357.84177700001,-0.02560746669769287,0.006763353943824768,0.034639835357666016,-0.2100900113582611,0.16808205842971802,0.07685338705778122,false
93357.85173600001,-0.018315225839614868,-0.032288625836372375,0.04666680097579956,-0.1995784491300583,0.18139766156673431,0.038094259798526764,false
93357.861695,-0.008163124322891235,-0.032666996121406555,0.041742801666259766,-0.05547213554382324,0.20850811898708344,-0.01988675259053707,false
93357.871654,0.0011888444423675537,0.022545531392097473,0.028992772102355957,0.15361542999744415,0.2421967089176178,-0.06303112953901291,false
93357.88161200001,0.008888453245162964,0.08627308160066605,0.01580876111984253,0.27680474519729614,0.2516842186450958,-0.06904774159193039,false
93357.891571,0.01048135757446289,0.1095508337020874,0.0021302103996276855,0.2190569043159485,0.23157694935798645,-0.049120668321847916,false
93357.90153,0.0033674240112304688,0.08173730969429016,-0.011489510536193848,0.038785651326179504,0.18416175246238708,-0.007490403484553099,false
93357.911489,-0.009172588586807251,0.027908213436603546,-0.02349984645843506,-0.1310712844133377,0.14598187804222107,0.03599881753325462,false
93357.921447,-0.011766999959945679,-0.01531665027141571,-0.01511228084564209,-0.22365182638168335,0.13343332707881927,0.06601743400096893,false
93357.931406,-0.005387604236602783,-0.029964201152324677,-0.004067659378051758,-0.21958284080028534,0.14532588422298431,0.06765023618936539,false
93357.941365,0.005825549364089966,-0.019064605236053467,0.016673743724822998,-0.10200801491737366,0.19144918024539948,0.048317015171051025,false
93357.95132400001,0.009735733270645142,0.01681239902973175,0.03791213035583496,0.07070483267307281,0.2657334506511688,0.029658595100045204,false
93357.961282,0.0013464391231536865,0.054732829332351685,0.05411249399185181,0.17460860311985016,0.3257123529911041,0.03053131327033043,false
93357.971241,-0.012539327144622803,0.06937537342309952,0.0546833872795105,0.17447537183761597,0.33850613236427307,0.048327770084142685,false
93357.98120000001,-0.019739866256713867,0.0640660971403122,0.03210729360580444,0.11538861691951752,0.3146063983440399,0.0603836365044117,false
93357.99115900001,-0.01522102952003479,0.047093525528907776,0.004992485046386719,0.042773738503456116,0.28371474146842957,0.08357339352369308,false
93358.001117,0.0006476044654846191,0.013648703694343567,-0.023901820182800293,-0.04577716812491417,0.21595697104930878,0.09685350954532623,false
93358.01107600001,0.018432021141052246,-0.019319556653499603,-0.05731916427612305,-0.1148316040635109,0.1416044533252716,0.09681469202041626,false
93358.02103500001,0.034700095653533936,-0.03271065652370453,-0.06898075342178345,-0.1136169359087944,0.08854363113641739,0.09607353806495667,false
93358.030994,0.039891183376312256,-0.02735885977745056,-0.061598122119903564,-0.03392323479056358,0.0808454304933548,0.11267217248678207,false
93358.04095200001,0.029752105474472046,0.0022702813148498535,-0.043732643127441406,0.04529009014368057,0.11369285732507706,0.14063777029514313,false
93358.050911,0.015357404947280884,0.03604070842266083,-0.018972337245941162,0.09629761427640915,0.1644633561372757,0.14694885909557343,false
93358.06087,0.004897862672805786,0.05463135242462158,0.004613757133483887,0.09696100652217865,0.20047596096992493,0.13599793612957,false
93358.070829,0.005364716053009033,0.04428804665803909,0.009900569915771484,0.05058439075946808,0.20578515529632568,0.12188226729631424,false
93358.080787,0.018414467573165894,0.010535754263401031,0.0012665390968322754,-0.029031876474618912,0.168532595038414,0.1338997781276703,false
93358.090746,0.027969568967819214,-0.009847290813922882,-0.020679712295532227,-0.054361533373594284,0.11316302418708801,0.14087535440921783,false
93358.100705,0.038814932107925415,0.0034613683819770813,-0.028051674365997314,-0.02353810705244541,0.0858491063117981,0.13474847376346588,false
93358.110663,0.0521869957447052,0.02675659954547882,-0.015168905258178711,0.02945100888609886,0.09112263470888138,0.10183002799749374,false
93358.120622,0.046695441007614136,0.061392441391944885,-0.005839109420776367,0.07955944538116455,0.10618440806865692,0.08433546125888824,false
93358.130581,0.02175682783126831,0.08918590843677521,-0.006703376770019531,0.07180685549974442,0.10901840776205063,0.09053479880094528,false
93358.14054000001,0.0010889768600463867,0.07382496446371078,-0.0126570463180542,0.02285715378820896,0.09079919010400772,0.10478563606739044,false
93358.150498,-0.005833357572555542,0.03870934993028641,-0.018263697624206543,-0.00015648500993847847,0.07995380461215973,0.10496331751346588,false
93358.160457,-0.005884021520614624,0.022498682141304016,-0.022480428218841553,0.038572534918785095,0.0779590979218483,0.08513981848955154,false
93358.17041600001,-0.0037886202335357666,0.03236587345600128,-0.013988792896270752,0.06753187626600266,0.09200900048017502,0.07431330531835556,false
93358.18037500001,-0.0007831156253814697,0.04275834560394287,-0.005483150482177734,0.06180821731686592,0.09885705262422562,0.07082722336053848,false
93358.190333,-0.006909281015396118,0.0392330139875412,0.004944264888763428,0.04834680259227753,0.10240364819765091,0.07200425863265991,false
93358.20029200001,-0.012938737869262695,0.022264182567596436,0.009495675563812256,0.026175718754529953,0.0975596234202385,0.08349579572677612,false
93358.21025100001,-0.018940657377243042,0.010046437382698059,0.004499375820159912,0.013457462191581726,0.10141076147556305,0.0754920095205307,false
93358.22021,-0.018556326627731323,0.016024574637413025,-0.0004354715347290039,0.0395473837852478,0.10844656080007553,0.06311576813459396,false
93358.23016800001,-0.015072941780090332,0.028885439038276672,0.000759422779083252,0.061181437224149704,0.11428168416023254,0.0610065795481205,false
93358.24012700001,-0.010608166456222534,0.031612083315849304,0.006273031234741211,0.06230129674077034,0.11647745966911316,0.06041935458779335,false
93358.250086,-0.008835077285766602,0.02854752540588379,0.012224674224853516,0.035138387233018875,0.12122667580842972,0.06503168493509293,false
93358.260045,-0.012774527072906494,0.02478751540184021,0.023072421550750732,0.02151711843907833,0.1217728853225708,0.07233593612909317,false
93358.270003125,-0.015451490879058838,0.016164705157279968,0.025680065155029297,0.010661408305168152,0.11070998013019562,0.08229446411132812,false
93358.279962125,-0.010378658771514893,0.002184450626373291,0.013791143894195557,0.034271128475666046,0.09455658495426178,0.08458078652620316,false
93358.289921125,0.0004157423973083496,0.0071890950202941895,-0.002222716808319092,0.08296377211809158,0.07986385375261307,0.0786040723323822,false
93358.299880125,0.012046515941619873,0.025557607412338257,-0.01471853256225586,0.10673834383487701,0.06879788637161255,0.0701778307557106,false
93358.309838125,0.01910799741744995,0.033090755343437195,-0.019693076610565186,0.08899383246898651,0.06530661135911942,0.0857716053724289,false
93358.319797125,0.015623629093170166,0.028014615178108215,-0.011448860168457031,0.026984788477420807,0.06429887562990189,0.11144474148750305,false
93358.32975612501,0.0019068419933319092,0.01722833514213562,-0.0035510659217834473,-0.047171931713819504,0.062226470559835434,0.13545550405979156,false
93358.339714125,-0.007913082838058472,0.005308598279953003,0.003545105457305908,-0.0884474590420723,0.0635676383972168,0.1360539197921753,false
93358.349673125,-0.0046752989292144775,-0.004280015826225281,0.011283516883850098,-0.08040445297956467,0.061151616275310516,0.11484258621931076,false
93358.35963212501,0.003925204277038574,0.0033435076475143433,0.009874224662780762,-0.019493164494633675,0.06639618426561356,0.09716159105300903,false
93358.36959112501,0.010152995586395264,0.02855558693408966,0.004384279251098633,0.07573867589235306,0.0853969007730484,0.07650421559810638,false
93358.379549125,0.014363229274749756,0.05429486930370331,0.0031879544258117676,0.11617611348628998,0.09847567975521088,0.05499865859746933,false
93358.38950812501,0.01646462082862854,0.06168763339519501,0.004688858985900879,0.08141427487134933,0.09686966985464096,0.059596169739961624,false
93358.39946712501,0.016020864248275757,0.04174552857875824,0.00603032112121582,0.16579093039035797,0.18103620409965515,0.02142162248492241,false
93358.409426125,0.012901097536087036,0.01996651291847229,0.03314507007598877,0.24902230501174927,0.2758919894695282,-0.04986217990517616,false
93358.41938412501,0.00757250189781189,-0.0022003203630447388,0.09563112258911133,0.20465005934238434,0.19712689518928528,0.032012712210416794,false
93358.42934312501,-0.01747867465019226,0.010305613279342651,-0.02361619472503662,0.2760627865791321,0.1296512484550476,0.12464889138936996,false
93358.439302125,0.02141779661178589,0.047961652278900146,0.0036640167236328125,0.31631168723106384,0.11078701168298721,0.15220488607883453,false
93358.449261125,0.04013186693191528,0.0689631849527359,-0.03659886121749878,0.2744552195072174,0.12590305507183075,0.148636132478714,false
93358.45921912501,0.029941409826278687,0.06493695080280304,-0.04446053504943848,0.12365293502807617,0.09049738943576813,0.16173942387104034,false
93358.469178125,0.023563653230667114,0.04010884463787079,-0.025339841842651367,-0.1707843542098999,-0.0935787707567215,0.21874113380908966,false
93358.479137125,0.037411898374557495,-0.009771659970283508,-0.03297072649002075,-0.5578588247299194,-0.32807543873786926,0.2780289649963379,false
93358.489096125,0.08284345269203186,-0.06963460147380829,-0.034162938594818115,-0.7746691703796387,-0.3588581085205078,0.3087257742881775,false
93358.499054125,0.10715523362159729,-0.09966063499450684,-0.01611381769180298,-0.5685932040214539,-0.16284385323524475,0.2558814585208893,false
