Timestamp,AX,AY,AZ,RX,RY,RZ,Jump
93328.28922491668,0.008001849055290222,0.005387268960475922,-0.007377803325653076,-0.17005258798599243,0.1609586477279663,0.14026857912540436,false
93328.29918391668,0.01066000759601593,0.026766404509544373,-0.013591527938842773,-0.08792068809270859,0.16228994727134705,0.13071401417255402,false
93328.30914191667,0.011505216360092163,0.03237093985080719,-0.01479029655456543,-0.031717605888843536,0.1655144989490509,0.10619456321001053,false
93328.31910091668,0.007783874869346619,0.04116509109735489,-0.013218998908996582,0.008784878067672253,0.16994473338127136,0.07849161326885223,false
93328.32905991668,0.006805434823036194,0.04542943090200424,-0.014932692050933838,-0.01027110405266285,-0.026461254805326462,0.5754451751708984,false
93328.33901791667,0.0018313229084014893,0.026513531804084778,-0.02295541763305664,-0.07793477177619934,-0.05774480849504471,1.279075264930725,false
93328.34897691668,-0.008226871490478516,-0.010084979236125946,-0.03412437438964844,-0.1683645248413086,0.0994940772652626,0.9956643581390381,false
93328.35893591667,-0.005912020802497864,-0.0414627343416214,-0.0266762375831604,-0.1957455575466156,0.3014703392982483,0.2282230406999588,false
93328.36889491667,-0.009842008352279663,-0.04985905438661575,-0.030312776565551758,-0.2425287812948227,0.13490401208400726,0.08692210167646408,false
93328.37885291668,-0.020154371857643127,-0.029856719076633453,-0.024958133697509766,-0.2062264233827591,0.10115989297628403,0.07448820769786835,false
93328.38881191667,0.00028614699840545654,0.008541181683540344,-0.01745617389678955,-0.14092545211315155,0.1101967915892601,0.08164066076278687,false
93328.39877091667,-0.005964457988739014,0.023610688745975494,-0.014073073863983154,-0.09782399237155914,0.11287625879049301,0.09097621589899063,false
93328.40872891668,-0.007384017109870911,0.008854053914546967,-0.00990152359008789,-0.09684021770954132,0.10162200778722763,0.09033599495887756,false
93328.41868791667,-0.005956277251243591,-0.01238754391670227,-0.005706489086151123,-0.10651035606861115,0.09925851970911026,0.08702253550291061,false
93328.42864691667,-0.005068376660346985,-0.011357210576534271,0.0006985068321228027,-0.08623011410236359,0.10514596849679947,0.08302486687898636,false
93328.43860591667,-0.00408722460269928,0.002110220491886139,0.0006862878799438477,-0.07154431939125061,0.10554178804159164,0.08584486693143845,false
93328.44856391667,-0.003421977162361145,0.0011191442608833313,0.0003941059112548828,-0.0822393074631691,0.09841543436050415,0.09919556230306625,false
93328.45852291667,-0.002863958477973938,-0.01808125525712967,0.00015687942504882812,-0.1494399756193161,0.08927033096551895,0.13019564747810364,false
93328.46848191667,-0.004981234669685364,-0.045823514461517334,0.0026654601097106934,-0.25865647196769714,0.06501106917858124,0.1761639267206192,false
93328.47843991667,-0.0030790865421295166,-0.07383658736944199,0.01041334867477417,-0.3599699139595032,0.02906811609864235,0.22080087661743164,false
93328.48839891667,0.0029012709856033325,-0.08579742908477783,0.02461189031600952,-0.4083579480648041,0.017684968188405037,0.2596904933452606,false
93328.49835791667,0.003689184784889221,-0.06613146513700485,0.04303920269012451,-0.35376036167144775,0.03139159083366394,0.29252955317497253,false
93328.50831691668,0.003362610936164856,-0.02233658730983734,0.059170305728912354,-0.24391695857048035,0.05393897742033005,0.3302553594112396,false
93328.51827491667,0.005000889301300049,0.00588950514793396,0.06355816125869751,-0.20702797174453735,0.06672634929418564,0.3864572048187256,false
93328.52823391667,0.011951103806495667,-0.0051164403557777405,0.07094472646713257,-0.2998678982257843,0.05986471474170685,0.44910141825675964,false
93328.53819291668,0.017940253019332886,-0.05730977654457092,0.08221513032913208,-0.5235370397567749,0.039782214909791946,0.5379568934440613,false
93328.54815091667,0.027625098824501038,-0.12336589395999908,0.09662520885467529,-0.8373879194259644,0.0015975437127053738,0.6616226434707642,false
93328.55810991667,0.039329081773757935,-0.17520201206207275,0.12237101793289185,-1.2137788534164429,-0.051280584186315536,0.8218305110931396,false
93328.56806891668,0.05619136989116669,-0.20808707177639008,0.15128493309020996,-1.651474118232727,-0.1140984296798706,1.0126382112503052,false
93328.57802791668,0.07254263758659363,-0.23405838012695312,0.18672478199005127,-2.162837028503418,-0.16831420361995697,1.2254548072814941,false
93328.58798591667,0.08391968905925751,-0.2844637632369995,0.2227555513381958,-2.7389471530914307,-0.23643572628498077,1.459921956062317,false
93328.59794491668,0.0962991714477539,-0.3611544668674469,0.2789883017539978,-3.301647186279297,-0.3029768168926239,1.678823471069336,false
93328.60790391667,0.10693199932575226,-0.40911245346069336,0.3287448287010193,-3.7431178092956543,-0.33005955815315247,1.8554203510284424,false
93328.61786191667,0.11975102126598358,-0.3921816647052765,0.37280595302581787,-3.9913625717163086,-0.3058578073978424,1.9768325090408325,false
93328.62782091668,0.13115084171295166,-0.33006173372268677,0.4096887707710266,-4.07536506652832,-0.23801618814468384,2.0955283641815186,false
93328.63777991667,0.14580538868904114,-0.2816014289855957,0.41886454820632935,-4.142534255981445,-0.16852977871894836,2.263960361480713,false
93328.64773891667,0.16900382936000824,-0.27907803654670715,0.4109121561050415,-4.308878421783447,-0.1513233631849289,2.470108985900879,false
93328.65769691668,0.19909363985061646,-0.32147738337516785,0.392011821269989,-4.635923385620117,-0.16491493582725525,2.6620919704437256,false
93328.66765591667,0.2324470728635788,-0.3851120173931122,0.3793486952781677,-5.155720233917236,-0.20021645724773407,2.850423574447632,false
93328.67761491667,0.2623991370201111,-0.4458918869495392,0.38474947214126587,-5.824445724487305,-0.2675815224647522,3.0301597118377686,false
93328.68757291668,0.29811084270477295,-0.5163230299949646,0.40906578302383423,-6.571324825286865,-0.3689475655555725,3.227881908416748,false
93328.69753191667,0.3360845148563385,-0.5817995071411133,0.43352198600769043,-7.324744701385498,-0.5113098621368408,3.3985419273376465,false
93328.70749091667,0.3831017017364502,-0.6000807285308838,0.4560617208480835,-8.026907920837402,-0.6744095683097839,3.510882616043091,false
93328.71744991667,0.4272805154323578,-0.5560086965560913,0.4874834418296814,-8.460050582885742,-0.8074222803115845,3.55049204826355,false
93328.72740791667,0.4680477976799011,-0.45927536487579346,0.5175864696502686,-8.5477933883667,-0.8955337405204773,3.544857978820801,false
93328.73736691667,0.5033021569252014,-0.33559441566467285,0.5109888315200806,-8.360050201416016,-0.9957157373428345,3.5748260021209717,false
93328.74732591667,0.5282951593399048,-0.19751262664794922,0.4555961489677429,-7.934336185455322,-1.156070590019226,3.6198225021362305,false
93328.75728391667,0.5432698726654053,-0.08071357011795044,0.3876873850822449,-7.4477972984313965,-1.3220199346542358,3.685692548751831,false
93328.76724291667,0.5408803820610046,-0.00865471363067627,0.3043333888053894,-6.972238063812256,-1.4697893857955933,3.761664390563965,false
93328.77720191667,0.5235316753387451,0.011636435985565186,0.21128901839256287,-6.525810241699219,-1.5690364837646484,3.8233749866485596,false
93328.78716091668,0.4999799132347107,-0.031838417053222656,0.15626171231269836,-6.282373428344727,-1.6341662406921387,3.8780832290649414,false
93328.79711891667,0.47301173210144043,-0.07892835140228271,0.14152124524116516,-6.155614852905273,-1.6963598728179932,3.9389750957489014,false
93328.80707791667,0.45429539680480957,-0.08098101615905762,0.13754940032958984,-6.032169342041016,-1.7912890911102295,4.030548572540283,false
93328.81703691668,0.4485582113265991,-0.10203266143798828,0.12360489368438721,-6.012388706207275,-1.9022808074951172,4.1332688331604,false
93328.82699491667,0.4586869478225708,-0.1034097671508789,0.11370575428009033,-6.059144973754883,-2.0602519512176514,4.169162273406982,false
93328.83695391667,0.4727542996406555,-0.06166064739227295,0.059971392154693604,-6.146254062652588,-2.1935837268829346,4.186614036560059,false
93328.84691291668,0.4904842972755432,-0.05057257413864136,0.03646665811538696,-6.183831214904785,-2.3668360710144043,4.169243335723877,false
93328.85687191667,0.5174267888069153,0.0062064528465271,0.04025553911924362,-6.017651557922363,-2.623450517654419,4.118649482727051,false
93328.86682991667,0.5441892743110657,0.11681926250457764,-0.016756534576416016,-5.775041103363037,-2.9043595790863037,4.090297698974609,false
93328.87678891668,0.5649834871292114,0.17811232805252075,-0.06416702270507812,-5.698195457458496,-3.1618027687072754,4.055473327636719,false
93328.88674791667,0.5833984017372131,0.16242903470993042,-0.06833815574645996,-5.906554698944092,-3.3816680908203125,3.943075656890869,false
93328.89670591668,0.6108502149581909,0.09404194355010986,-0.0380634069442749,-6.232821464538574,-3.6229805946350098,3.777966022491455,false
93328.90666491668,0.6616048216819763,0.07174926996231079,0.0302425604313612,-6.375376224517822,-3.8964738845825195,3.5256283283233643,false
93328.91662391667,0.7119637131690979,0.14560562372207642,0.052005767822265625,-6.337201118469238,-4.1256842613220215,3.208454132080078,false
93328.92658291667,0.7133675217628479,0.23280459642410278,0.04990839958190918,-6.135284900665283,-4.287083625793457,2.938162088394165,false
93328.93654091668,0.669740617275238,0.31238800287246704,0.09123849868774414,-5.584473609924316,-4.366916179656982,2.6879332065582275,false
93328.94649991667,0.6101340651512146,0.3745359182357788,0.06311023235321045,-5.032644271850586,-4.391299247741699,2.447617292404175,false
93328.95645891667,0.5463655591011047,0.3751493990421295,0.02329075336456299,-4.534278869628906,-4.364890098571777,2.250110626220703,false
93328.96641691668,0.523819625377655,0.36116957664489746,0.055315613746643066,-4.261497497558594,-4.38491678237915,2.052896738052368,false
93328.97637591667,0.5649311542510986,0.3218161165714264,0.055715739727020264,-4.092998504638672,-4.414233207702637,1.7953202724456787,false
93328.98633491667,0.6451181769371033,0.3055281341075897,0.09753675013780594,-3.9720911979675293,-4.45181131362915,1.4876338243484497,false
93328.99629391667,0.6753825545310974,0.36251068115234375,0.10587364435195923,-3.8640778064727783,-4.4317240715026855,1.2008031606674194,false
93329.00625191667,0.6202656626701355,0.4029412567615509,0.11911344528198242,-3.7366578578948975,-4.402656555175781,0.9158933758735657,false
93329.01621091667,0.5309814810752869,0.38700565695762634,0.10287679731845856,-3.6797468662261963,-4.336236000061035,0.6348130106925964,false
93329.02616991667,0.4649772644042969,0.3627896308898926,0.0641372799873352,-3.467500686645508,-4.277977466583252,0.3945024311542511,false
93329.03612791667,0.4622179865837097,0.4044930338859558,0.06372451782226562,-3.2225096225738525,-4.175653457641602,0.161681666970253,false
93329.04608691667,0.4525994658470154,0.4559975266456604,0.10153400897979736,-3.0780720710754395,-4.0695013999938965,-0.0826503187417984,false
93329.05604591667,0.4192972779273987,0.4689289331436157,0.1731243133544922,-3.110833168029785,-3.9834392070770264,-0.35705533623695374,false
93329.06600491668,0.40819060802459717,0.4652664065361023,0.2330283224582672,-3.1446614265441895,-3.8290936946868896,-0.6107121109962463,false
93329.07596291667,0.35982805490493774,0.4976775050163269,0.3162491023540497,-3.2492434978485107,-3.7258498668670654,-0.9921066164970398,false
93329.08592191667,0.3070005178451538,0.5806788206100464,0.3282480537891388,-3.3868165016174316,-3.602414608001709,-1.3146941661834717,false
93329.09588091668,0.27723801136016846,0.6622227430343628,0.39313235878944397,-3.2204782962799072,-3.4134304523468018,-1.6153947114944458,false
93329.10583991668,0.23146498203277588,0.7416015863418579,0.3994745910167694,-2.695639133453369,-3.186643362045288,-1.9108532667160034,false
93329.11579791667,0.23163890838623047,0.8462393879890442,0.2861165702342987,-2.2183403968811035,-2.977816343307495,-2.161937713623047,false
93329.12575691668,0.2734236717224121,0.859717607498169,0.21638408303260803,-2.254704236984253,-2.833331346511841,-2.3540406227111816,false
93329.13571591667,0.3094431161880493,0.7088310718536377,0.2800058424472809,-2.768045425415039,-2.712944507598877,-2.537128448486328,false
93329.14567391668,0.3303605318069458,0.5577775239944458,0.4659000337123871,-3.009188652038574,-2.564368963241577,-2.805624008178711,false
93329.15563291668,0.2965964674949646,0.639760434627533,0.6744585633277893,-3.264615297317505,-2.2532107830047607,-3.1544501781463623,false
93329.16559191667,0.20125281810760498,0.7693880796432495,0.7252435088157654,-3.670328378677368,-1.9142347574234009,-3.471367359161377,false
93329.17555091667,0.17611759901046753,0.7172659635543823,0.7698870301246643,-4.1631903648376465,-1.5688813924789429,-3.7381088733673096,false
93329.18550891668,0.2169904112815857,0.6268148422241211,0.7989374995231628,-4.328365325927734,-1.1943567991256714,-4.001360893249512,false
93329.19546791667,0.2629256248474121,0.5740678906440735,0.8063583374023438,-4.185970306396484,-0.7270206809043884,-4.213353633880615,false
93329.20542691667,0.2964789867401123,0.5863086581230164,0.8221094608306885,-3.7754244804382324,-0.18219386041164398,-4.378390789031982,false
93329.21538491668,0.24406671524047852,0.5480003356933594,0.8987663984298706,-3.28891921043396,0.34510090947151184,-4.582975387573242,false
93329.22534391667,0.29100579023361206,0.46778690814971924,0.9684521555900574,-3.165389060974121,0.7714633941650391,-4.774207592010498,false
93329.23530291667,0.380944162607193,0.30853694677352905,0.9972062706947327,-3.146566867828369,1.14940345287323,-4.793333053588867,false
93329.24526200001,0.49442633986473083,0.08591169118881226,1.052878499031067,-2.6203081607818604,1.5800994634628296,-4.735342025756836,false
93329.25522,0.5935714840888977,-0.06211984157562256,1.1235523223876953,-1.5150158405303955,2.0849688053131104,-4.84069299697876,false
93329.26517900001,0.6422708034515381,-0.005995750427246094,1.1033211946487427,-0.5270333290100098,2.5721378326416016,-5.018805980682373,false
93329.27513800001,0.6849876046180725,0.044309020042419434,1.0278648138046265,0.1316247135400772,2.904895544052124,-5.135228633880615,false
93329.285096,0.8409298658370972,-0.05489081144332886,1.0263830423355103,0.47285422682762146,3.141343355178833,-5.18126916885376,false
93329.29505500001,1.022834062576294,-0.1834937334060669,1.051751732826233,0.5007001161575317,3.391094207763672,-5.156782150268555,false
93329.30501400001,1.0857864618301392,-0.3282037377357483,1.0838325023651123,0.4167056679725647,3.644162893295288,-5.078827857971191,false
93329.314973,1.0995737314224243,-0.4292893409729004,1.1129157543182373,0.42414700984954834,3.8659205436706543,-4.995695114135742,false
93329.32493100001,1.1196194887161255,-0.4445222020149231,1.0663409233093262,0.5021331310272217,4.041594505310059,-4.931181907653809,false
93329.33489000001,1.1287034749984741,-0.4345545768737793,0.973292887210846,0.5929719805717468,4.127316474914551,-4.7527241706848145,false
93329.344849,1.1349140405654907,-0.4989795684814453,0.860249936580658,0.6956813335418701,4.143796920776367,-4.535780906677246,false
93329.35480700001,1.12209153175354,-0.6153852939605713,0.7431085109710693,0.7977919578552246,4.087831974029541,-4.218662261962891,false
93329.364766,1.0778273344039917,-0.7476261258125305,0.6402606964111328,0.9688600897789001,4.038623332977295,-3.8570210933685303,false
93329.374725,1.0252645015716553,-0.8319318294525146,0.5730787515640259,1.14736807346344,4.0478596687316895,-3.5454931259155273,false
93329.384684,0.9463698267936707,-0.8787399530410767,0.5315553545951843,1.198305368423462,4.095277309417725,-3.2015483379364014,false
93329.394642,0.8563350439071655,-0.9252379536628723,0.5745915174484253,1.2728700637817383,4.15380859375,-2.8787038326263428,false
93329.404601,0.8006280660629272,-0.8978988528251648,0.633995532989502,1.49288809299469,4.2255859375,-2.647641658782959,false
93329.41456,0.7852846384048462,-0.7723453640937805,0.6385155320167542,1.6958043575286865,4.28734827041626,-2.472126007080078,false
93329.424518,0.7949021458625793,-0.6477379202842712,0.6197330951690674,1.6489769220352173,4.2893829345703125,-2.2914767265319824,false
93329.434477,0.8456926941871643,-0.5862590670585632,0.599177896976471,1.2547417879104614,4.252437114715576,-2.0190556049346924,false
93329.444436,0.9217550754547119,-0.6049462556838989,0.6006304025650024,0.5667498111724854,4.206233978271484,-1.632595419883728,false
93329.45439500001,1.0040967464447021,-0.6549366116523743,0.6058948040008545,-0.1524677276611328,4.190021991729736,-1.2160805463790894,false
93329.464353,1.0658360719680786,-0.6734552979469299,0.5689218044281006,-0.7420263290405273,4.191010475158691,-0.8907245397567749,false
93329.474312,1.0485427379608154,-0.6736233234405518,0.48675376176834106,-1.1441233158111572,4.2286810874938965,-0.5761682987213135,false
93329.48427100001,0.9388825297355652,-0.6703961491584778,0.4327087998390198,-1.4201476573944092,4.267553329467773,-0.2447626143693924,false
93329.494229,0.8082777261734009,-0.6395183801651001,0.35573211312294006,-1.7877215147018433,4.27781867980957,0.07097610831260681,false
93329.504188,0.7263064384460449,-0.6211547255516052,0.21349355578422546,-2.1681315898895264,4.3355712890625,0.4702707529067993,false
93329.51414700001,0.735576868057251,-0.6278747916221619,0.0469319224357605,-2.1061015129089355,4.379123210906982,0.9449834227561951,false
93329.52410600001,0.8479766249656677,-0.5816431045532227,-0.11938881874084473,-1.3515362739562988,4.275358200073242,1.2976323366165161,false
93329.534064,0.9894006252288818,-0.4196174144744873,-0.31665512919425964,0.007176928222179413,3.9588887691497803,1.3638361692428589,false
93329.54402300001,1.0489345788955688,-0.22884249687194824,-0.5191456079483032,1.2887378931045532,3.6148223876953125,1.33505117893219,false
93329.55398200001,0.9652838706970215,-0.15355712175369263,-0.5538007020950317,1.874192476272583,3.4049923419952393,1.2987202405929565,false
93329.56394000001,0.7681592702865601,-0.2291749119758606,-0.4960666596889496,1.7490074634552002,3.2997844219207764,1.2319129705429077,false
93329.57389900001,0.5675202012062073,-0.39468294382095337,-0.41716355085372925,1.1657770872116089,3.226109743118286,1.1784477233886719,false
93329.58385800001,0.44788217544555664,-0.5309399962425232,-0.35388410091400146,0.35325244069099426,3.1494321823120117,1.1802048683166504,false
93329.593817,0.4140290319919586,-0.6003751754760742,-0.3341927230358124,-0.41033411026000977,3.095986843109131,1.357306718826294,false
93329.60377500001,0.4519241154193878,-0.5901628732681274,-0.340731680393219,-0.8060044646263123,3.074173927307129,1.6220248937606812,false
93329.613734,0.5649608373641968,-0.48289430141448975,-0.38737744092941284,-0.6447302103042603,2.9183802604675293,1.712047815322876,false
93329.623693,0.7049427628517151,-0.32653552293777466,-0.5157203674316406,-0.1584511250257492,2.5234007835388184,1.6812771558761597,false
93329.63365100001,0.7866503000259399,-0.19506055116653442,-0.6751211881637573,0.22553284466266632,2.0785813331604004,1.6823900938034058,false
93329.64361,0.7498911619186401,-0.1439986228942871,-0.7450351119041443,0.35724931955337524,1.7946761846542358,1.7483043670654297,false
93329.653569,0.590632438659668,-0.20962947607040405,-0.7429471611976624,0.2224562168121338,1.6076546907424927,1.8089960813522339,false
93329.663528,0.41372135281562805,-0.31395435333251953,-0.6845945715904236,-0.008495507761836052,1.362475037574768,1.7981634140014648,false
93329.673486,0.31213048100471497,-0.3845188617706299,-0.5887253880500793,-0.5151675343513489,1.1409235000610352,1.9022599458694458,false
93329.683445,0.2576845586299896,-0.4389536380767822,-0.41952794790267944,-0.9706271886825562,1.0152488946914673,1.999598503112793,false
93329.693404,0.21196380257606506,-0.3965204358100891,-0.3399062156677246,-0.9127793908119202,0.9913378953933716,1.9408010244369507,false
93329.703362,0.17011606693267822,-0.2566533088684082,-0.4243846833705902,-0.4338332712650299,0.9644448161125183,1.7850936651229858,false
93329.713321,0.15583911538124084,-0.07145035266876221,-0.5816606879234314,0.10408256947994232,0.821997880935669,1.6243112087249756,false
93329.72328,0.16860561072826385,0.027478039264678955,-0.7436875700950623,0.29200029373168945,0.40955567359924316,1.4556643962860107,false
93329.73323900001,0.19116710126399994,-0.031585752964019775,-0.8230236172676086,-0.04259788244962692,0.008508446626365185,1.4348039627075195,false
93329.743197,0.1754799336194992,-0.1570996642112732,-0.7655582427978516,-0.48218271136283875,-0.18411558866500854,1.4243006706237793,false
93329.753156,0.11205080151557922,-0.18801796436309814,-0.6323421001434326,-0.8227230310440063,-0.2729528546333313,1.343333125114441,false
93329.76311500001,0.07978081703186035,-0.1347639560699463,-0.5627740621566772,-0.9546475410461426,-0.3207677900791168,1.3491138219833374,false
93329.773073,0.1321728229522705,-0.0429987907409668,-0.4876127541065216,-0.838970959186554,-0.3061036169528961,1.3565986156463623,false
93329.783032,0.23205429315567017,0.09578144550323486,-0.40203309059143066,-0.5409054756164551,-0.34130236506462097,1.2697467803955078,false
93329.79299100001,0.32767900824546814,0.2484264373779297,-0.4254642426967621,-0.295310378074646,-0.46128949522972107,1.0832574367523193,false
93329.80295000001,0.4341939687728882,0.3696550130844116,-0.5601822733879089,-0.06259216368198395,-0.6953983902931213,0.7557623386383057,false
93329.812908,0.5471662282943726,0.46751850843429565,-0.6795154213905334,-0.1391890048980713,-0.9808645248413086,0.6055741906166077,false
93329.82286700001,0.601908802986145,0.43027377128601074,-0.7127332091331482,-1.062944769859314,-1.2029383182525635,0.8126762509346008,false
93329.83282600001,0.5954762697219849,0.23856639862060547,-0.6100298166275024,-2.2837443351745605,-1.2357354164123535,1.1771953105926514,false
93329.84278400001,0.5638391971588135,0.10127484798431396,-0.4097013771533966,-2.8289647102355957,-1.151112675666809,1.61482834815979,false
93329.85274300001,0.6019562482833862,0.16477376222610474,-0.3558483421802521,-2.74108624458313,-1.1431779861450195,2.027292490005493,false
93329.862702,0.7386822700500488,0.43622344732284546,-0.42327383160591125,-2.3494038581848145,-1.1874618530273438,2.4606220722198486,false
93329.872661,0.8927614688873291,0.6925386786460876,-0.4774617552757263,-2.2475903034210205,-1.4578732252120972,3.077902317047119,false
93329.88261900001,1.0854406356811523,0.7681629061698914,-0.5398536324501038,-1.0836749076843262,-2.091505765914917,3.7308027744293213,false
93329.892578,1.3361022472381592,0.8581118583679199,-0.7541545033454895,0.07629082351922989,-2.1376631259918213,4.334781169891357,false
93329.902537,1.3733417987823486,0.9533416628837585,-0.4741911292076111,-1.346112608909607,-1.788812279701233,5.58312463760376,true
93329.91249500001,1.2136096954345703,1.1230186223983765,0.4556530714035034,-3.466324806213379,-1.517073631286621,5.904508590698242,false
93329.922454,1.1874127388000488,0.4535699486732483,0.4249665439128876,-4.985541343688965,-1.9473594427108765,5.700247764587402,false
93329.932413,1.2001516819000244,-0.004745066165924072,0.41413354873657227,-5.502043724060059,-2.5089995861053467,6.30731725692749,false
93329.942372,1.1700642108917236,0.09064781665802002,0.7063153982162476,-4.7794189453125,-2.832078695297241,6.321264743804932,false
93329.95233,1.0040425062179565,0.5675814151763916,0.8221147656440735,-3.6101930141448975,-2.9299330711364746,5.372539520263672,false
93329.962289,0.6830793619155884,1.293852686882019,0.3717212677001953,-1.95634126663208,-2.838923454284668,4.158149242401123,false
93329.972248,0.34259480237960815,1.5455960035324097,-0.3182045817375183,0.18163061141967773,-3.524310827255249,2.609273910522461,false
93329.982206,0.03164762258529663,0.9893280863761902,-0.9637341499328613,-2.4772255420684814,-3.3033559322357178,2.976775646209717,false
93329.992165,-0.3730549216270447,-0.2433064579963684,-0.20417416095733643,-6.333785533905029,-2.0931556224823,3.097306728363037,false
93330.002124,-0.7737115621566772,-0.747265100479126,1.0001106262207031,-5.293256759643555,-2.029595375061035,2.1446337699890137,false
93330.01208300001,-0.8034564256668091,-0.04804360866546631,0.7728545069694519,-0.6475697755813599,-2.008979320526123,1.5817718505859375,false
93330.022041,-0.7383943200111389,0.870740532875061,0.09040398895740509,1.9589130878448486,-0.48612552881240845,1.2687848806381226,false
93330.032,-1.0706887245178223,1.3925920724868774,0.8120490312576294,3.0266950130462646,1.1267341375350952,-0.042548324912786484,false
93330.04195900001,-1.2464206218719482,1.5830986499786377,1.5483704805374146,3.3808610439300537,1.4273121356964111,-0.5630553960800171,false
93330.051917,-0.9197533130645752,0.9794963598251343,1.3088375329971313,2.5509066581726074,0.9091764688491821,-0.24828477203845978,false
93330.061876,-0.48651331663131714,0.020367920398712158,1.0336215496063232,0.1409282684326172,0.6866845488548279,-0.1853175163269043,false
93330.07183500001,-0.45573484897613525,-0.5045046210289001,1.0641744136810303,-1.6016596555709839,1.0931190252304077,-0.5887714624404907,false
93330.08179400001,-0.6301299333572388,-0.34333181381225586,1.2439748048782349,-1.6094188690185547,1.6271605491638184,-1.1038992404937744,false
93330.09175200001,-0.8321433663368225,0.037302494049072266,0.9411957263946533,-0.27819204330444336,1.8285115957260132,-1.305262804031372,false
93330.10171100001,-1.018505573272705,0.2721770405769348,0.36851805448532104,0.9692379832267761,1.7125985622406006,-1.5014350414276123,false
93330.11167,-1.0985548496246338,0.2969290614128113,-0.06292301416397095,1.2526612281799316,1.7669317722320557,-1.5398259162902832,false
93330.12162800001,-1.0998711585998535,0.024170100688934326,0.06167322397232056,0.8468723893165588,1.7629966735839844,-1.7047368288040161,false
93330.13158700001,-0.9516584277153015,-0.2465648055076599,0.31292659044265747,0.6852567195892334,1.7728012800216675,-1.9471776485443115,false
93330.141546,-0.7402949929237366,-0.17010897397994995,0.476532518863678,0.8196608424186707,1.8527655601501465,-2.153710126876831,false
93330.151505,-0.6511639356613159,-0.06151002645492554,0.4315260648727417,0.7353115677833557,1.8026973009109497,-2.226390838623047,false
93330.16146300001,-0.6934387683868408,-0.2003568410873413,0.23803317546844482,0.32197728753089905,1.5614873170852661,-2.220031499862671,false
93330.171422,-0.7371408343315125,-0.435554563999176,0.013568639755249023,-0.10025878995656967,1.4271771907806396,-2.213163375854492,false
93330.181381,-0.7059773206710815,-0.5511312484741211,-0.0957866907119751,-0.3970997631549835,1.392778992652893,-2.1881611347198486,false
93330.19133900001,-0.6416341662406921,-0.5732250213623047,-0.09177190065383911,-0.26283618807792664,1.2713512182235718,-2.224698066711426,false
93330.201298,-0.5683833360671997,-0.5275034308433533,-0.15265804529190063,0.3233599066734314,1.1417940855026245,-2.539440393447876,false
93330.211257,-0.4028501510620117,-0.21108096837997437,-0.1441112756729126,1.1396121978759766,1.3087821006774902,-2.586881160736084,false
93330.221216,-0.4613996148109436,-0.043863654136657715,-0.09203362464904785,1.0373479127883911,1.3442738056182861,-3.0423078536987305,false
93330.231174,-0.3741459846496582,-0.13850325345993042,-0.11281824111938477,0.8414408564567566,1.1965686082839966,-3.0301308631896973,false
93330.241133,-0.16497045755386353,-0.32905691862106323,-0.09070432186126709,0.17560182511806488,1.0079538822174072,-2.7276651859283447,false
93330.251092,0.05650144815444946,-0.5224645137786865,-0.0650750994682312,-0.6869818568229675,0.8391138315200806,-2.4586706161499023,false
93330.26105,0.25850504636764526,-0.4538055658340454,-0.04547739028930664,-1.1583693027496338,0.7298719882965088,-1.9511245489120483,false
93330.271009,0.4361291527748108,-0.3083571791648865,-0.04929697513580322,-1.2358193397521973,0.6373701691627502,-1.3064261674880981,false
93330.280968,0.6236247420310974,-0.1074904203414917,0.022130370140075684,-0.7750911116600037,0.5521093606948853,-0.8449527621269226,false
93330.29092700001,0.7697820663452148,0.14840072393417358,0.10339689254760742,-0.1267620325088501,0.4993753433227539,-0.5608848333358765,false
93330.300885,0.8060149550437927,0.32842326164245605,0.06597375869750977,0.6009758114814758,0.5303940176963806,-0.35553112626075745,false
93330.310844,0.7464689016342163,0.445203959941864,0.11904346942901611,1.260537028312683,0.7095869779586792,-0.1863608956336975,false
93330.32080300001,0.6682103276252747,0.5814283490180969,0.21114897727966309,1.4461721181869507,0.9679141044616699,0.07673198729753494,false
93330.330761,0.6019684076309204,0.5893312692642212,0.17832356691360474,1.0204167366027832,1.0412286520004272,0.5688082575798035,false
93330.34072000001,0.6511516571044922,0.3982656002044678,0.11560583114624023,0.44324931502342224,0.9000977873802185,1.0206042528152466,false
93330.35067900001,0.7966359853744507,0.33196496963500977,0.10038763284683228,0.26381605863571167,0.7249096632003784,1.2805838584899902,false
93330.36063800001,0.8805898427963257,0.4534347653388977,0.058523714542388916,0.220833420753479,0.5599113702774048,1.3511173725128174,false
93330.37059600001,0.8537197709083557,0.5652637481689453,0.049571871757507324,0.3765442669391632,0.4710148274898529,1.205450415611267,false
93330.38055500001,0.7502562403678894,0.6209039092063904,0.041374921798706055,0.7631623148918152,0.43704140186309814,0.9025771617889404,false
93330.390514,0.5937824845314026,0.6124432682991028,-0.04273766279220581,1.1190754175186157,0.4080559313297272,0.629754364490509,false
93330.40047200001,0.42207831144332886,0.5273475050926208,-0.0919872522354126,1.4303877353668213,0.3320237398147583,0.4128076732158661,false
93330.41043100001,0.2569027543067932,0.3948911428451538,-0.1478036642074585,1.5760809183120728,0.2292468100786209,0.18370448052883148,false
93330.42039,0.09560573101043701,0.2294234037399292,-0.2351413369178772,1.3648831844329834,0.24405105412006378,0.051244184374809265,false
93330.430349,-0.05588102340698242,0.030379056930541992,-0.25190281867980957,0.8311668038368225,0.3691962659358978,0.09053517878055573,false
93330.44030700001,-0.16280698776245117,-0.15910673141479492,-0.1741524338722229,0.29174381494522095,0.48789307475090027,0.12048854678869247,false
93330.450266,-0.2183113694190979,-0.24274933338165283,-0.08541375398635864,0.024618636816740036,0.5260642170906067,0.06330122798681259,false
93330.460225,-0.2523553967475891,-0.21166497468948364,-0.08772313594818115,0.07252197712659836,0.49212005734443665,-0.043004173785448074,false
93330.47018300001,-0.2768864631652832,-0.11109763383865356,-0.13454383611679077,0.5089712142944336,0.47979867458343506,-0.12859196960926056,false
93330.480142,-0.29829227924346924,0.00158005952835083,-0.1504541039466858,1.1402626037597656,0.47577568888664246,-0.22723253071308136,false
93330.490101,-0.33202528953552246,0.048890650272369385,-0.16780203580856323,1.7704604864120483,0.49397119879722595,-0.3186670243740082,false
93330.50006,-0.3806304931640625,0.041255176067352295,-0.14337551593780518,2.057689905166626,0.6068906188011169,-0.3816228210926056,false
93330.510018,-0.42869633436203003,-0.030238628387451172,-0.12945497035980225,1.8211828470230103,0.7899906635284424,-0.4033220112323761,false
93330.519977,-0.44634324312210083,-0.21328479051589966,-0.06355064362287521,1.2227002382278442,0.815277099609375,-0.3673861026763916,false
93330.529936,-0.38818323612213135,-0.39717239141464233,-0.024970583617687225,0.48911282420158386,0.6463304162025452,-0.2911211848258972,false
93330.539894,-0.272896945476532,-0.4893088936805725,-0.05969291180372238,-0.19203244149684906,0.4180617928504944,-0.21962301433086395,false
93330.549853,-0.16430550813674927,-0.4836187958717346,-0.08074229210615158,-0.61524897813797,0.24240343272686005,-0.23986729979515076,false
93330.559812,-0.09855508804321289,-0.35527342557907104,-0.06722432374954224,-0.5552404522895813,0.10759980976581573,-0.28939706087112427,false
93330.56977100001,-0.08440345525741577,-0.16398972272872925,-0.07930172234773636,-0.05292142927646637,0.0722961500287056,-0.1938587874174118,false
93330.579729,-0.10007405281066895,-0.026288151741027832,-0.05452287197113037,0.48633086681365967,0.15639691054821014,-0.02157731167972088,false
93330.58968800001,-0.1278725266456604,-0.0033981800079345703,-0.023248545825481415,0.8184390664100647,0.32745787501335144,0.07169324904680252,false
93330.59964700001,-0.13375389575958252,0.0072838664054870605,0.08931858092546463,1.1318025588989258,0.5495790839195251,0.10699184983968735,false
93330.609605,-0.07697820663452148,0.07732874155044556,0.17691189050674438,1.4723668098449707,0.6686919927597046,0.1400480568408966,false
93330.61956400001,0.03372681140899658,0.13711488246917725,0.1523279994726181,1.733035683631897,0.6630050539970398,0.20904310047626495,false
93330.62952300001,0.16030997037887573,0.16671645641326904,0.11659859120845795,1.719024896621704,0.6273749470710754,0.27658170461654663,false
93330.639482,0.2614692449569702,0.1263946294784546,0.1090857982635498,1.4394603967666626,0.5736808180809021,0.2797575294971466,false
93330.64944000001,0.31148433685302734,0.03582298755645752,0.12949365377426147,1.0419286489486694,0.5481360554695129,0.2595895528793335,false
93330.65939900001,0.30589383840560913,-0.03985738754272461,0.14738261699676514,0.6669766902923584,0.5520287752151489,0.2503789961338043,false
93330.669358,0.2522018551826477,-0.060496389865875244,0.16342240571975708,0.5155916213989258,0.6016039848327637,0.24460682272911072,false
93330.67931600001,0.15997624397277832,-0.03911393880844116,0.1412140130996704,0.5708085298538208,0.7039487361907959,0.23810870945453644,false
93330.68927500001,0.06102102994918823,-0.002835392951965332,0.10152733325958252,0.7787033915519714,0.7861589193344116,0.20398029685020447,false
93330.699234,-0.01284724473953247,0.04659909009933472,0.061852872371673584,1.0321424007415771,0.8946502804756165,0.22134409844875336,false
93330.709193,-0.05389279127120972,0.05589127540588379,0.029699265956878662,1.1462681293487549,0.963160514831543,0.32123392820358276,false
93330.71915100001,-0.060517311096191406,0.007586956024169922,-0.014118388295173645,1.0334025621414185,0.8845996856689453,0.3383846580982208,false
93330.72911,-0.04043269157409668,-0.06439191102981567,-0.10790605843067169,0.6145645976066589,0.6949345469474792,0.31676214933395386,false
93330.739069,-0.006175696849822998,-0.14804381132125854,-0.16811996698379517,0.12272404134273529,0.4835280478000641,0.30209317803382874,false
93330.74902700001,0.02497631311416626,-0.16073042154312134,-0.12839913368225098,-0.20994028449058533,0.34089329838752747,0.2840014398097992,false
93330.758986,0.015217423439025879,-0.14030545949935913,-0.11345702409744263,-0.3752930164337158,0.2664734125137329,0.2793784737586975,false
93330.768945,-0.026369094848632812,-0.13058888912200928,-0.09363330900669098,-0.4338850677013397,0.22063255310058594,0.27597469091415405,false
93330.778904,-0.06856727600097656,-0.11126458644866943,-0.06255924701690674,-0.3518144488334656,0.20058535039424896,0.25310879945755005,false
93330.788862,-0.10048037767410278,-0.07558703422546387,-0.035553932189941406,-0.16424649953842163,0.2244354784488678,0.24183598160743713,false
93330.798821,-0.12650030851364136,-0.0548592209815979,-0.04251675307750702,0.01942453905940056,0.26761090755462646,0.2769297957420349,false
93330.80878,-0.1370827555656433,-0.060840070247650146,-0.03753769397735596,0.12872886657714844,0.26784732937812805,0.37373343110084534,false
93330.81873900001,-0.12511062622070312,-0.046071648597717285,-0.01589822769165039,0.2241821438074112,0.23807185888290405,0.4949256479740143,false
93330.828697,-0.10339832305908203,-0.00802677869796753,-0.023396313190460205,0.37341904640197754,0.22679099440574646,0.6170122027397156,false
93330.838656,-0.07142102718353271,0.03960233926773071,-0.033724069595336914,0.5705571174621582,0.21095183491706848,0.7443171739578247,false
93330.84861500001,-0.03316396474838257,0.061454951763153076,-0.0769582986831665,0.6454252004623413,0.14692270755767822,0.8642473220825195,false
93330.858573,-0.004316508769989014,0.037625014781951904,-0.11217941343784332,0.6150568723678589,0.09975094348192215,0.9736880660057068,false
93330.86853200001,0.009081780910491943,0.026085197925567627,-0.06389231979846954,0.5690128803253174,0.1277395635843277,1.0605398416519165,false
93330.87849100001,0.0005601048469543457,0.005964517593383789,-0.04924730956554413,0.5017350316047668,0.09402421116828918,1.1060807704925537,false
93330.88845,-0.02637505531311035,-0.02790135145187378,-0.042653441429138184,0.48706111311912537,0.07659076154232025,1.2028752565383911,false
93330.89840800001,-0.06111723184585571,-0.053435444831848145,-0.033486440777778625,0.5248873233795166,0.06273885816335678,1.3261675834655762,false
93330.90836700001,-0.09240418672561646,-0.07626736164093018,-0.0753670185804367,0.4899722635746002,0.025793159380555153,1.4059947729110718,false
93330.918326,-0.08295488357543945,-0.0769815444946289,-0.12582264840602875,0.40227359533309937,-0.0517282597720623,1.4048570394515991,false
93330.92828400001,-0.03545331954956055,-0.019385576248168945,-0.1551431268453598,0.4656428098678589,-0.08137150853872299,1.3550320863723755,false
93330.93824300001,0.02187037467956543,0.08613985776901245,-0.1031516045331955,0.6490067839622498,-0.08540992438793182,1.3018991947174072,false
93330.948202,0.06955826282501221,0.14240509271621704,-0.06350278854370117,0.7149466872215271,-0.19258637726306915,1.2820748090744019,false
93330.958161,0.10040062665939331,0.08674389123916626,-0.08136303722858429,0.5779630541801453,-0.34498870372772217,1.3216842412948608,false
93330.96811900001,0.1123279333114624,-0.04383283853530884,-0.11887121200561523,0.25690147280693054,-0.47425633668899536,1.3661061525344849,false
93330.978078,0.10711848735809326,-0.17944979667663574,-0.13327211141586304,-0.14166773855686188,-0.5669153928756714,1.3955471515655518,false
93330.988037,0.09164875745773315,-0.24618715047836304,-0.07397860288619995,-0.5266386866569519,-0.5902920365333557,1.4456543922424316,false
93330.99799500001,0.09680807590484619,-0.18886595964431763,0.011715024709701538,-0.683158814907074,-0.6644150018692017,1.3634012937545776,false
93331.007954,0.13297206163406372,-0.055982351303100586,-0.07090668380260468,-0.6005198955535889,-0.7610999345779419,1.2423396110534668,false
93331.017913,0.16082501411437988,0.03409940004348755,-0.1640685647726059,-0.4475385844707489,-0.7927446961402893,1.209065318107605,false
93331.027872,0.16397792100906372,0.05094027519226074,-0.17583978176116943,-0.3246815800666809,-0.7844665050506592,1.1760889291763306,false
93331.03783,0.137079656124115,0.01248866319656372,-0.17179083824157715,-0.2890830934047699,-0.7792320251464844,1.1439794301986694,false
93331.047789,0.10714590549468994,-0.04052084684371948,-0.14906102418899536,-0.2869562804698944,-0.722321093082428,1.117864727973938,false
93331.057748,0.0859031081199646,-0.06050616502761841,-0.07277747988700867,-0.29675406217575073,-0.6451541185379028,1.1031453609466553,false
93331.06770700001,0.06117236614227295,-0.05553394556045532,-0.009725421667098999,-0.35384830832481384,-0.6143158078193665,1.0420984029769897,false
93331.077665,0.04979819059371948,-0.033843934535980225,-0.00017745792865753174,-0.4419483542442322,-0.6259205341339111,0.9864485859870911,false
93331.087624,0.05227172374725342,-0.021656155586242676,0.03718191385269165,-0.42421954870224,-0.6537845134735107,1.0001643896102905,false
93331.09758300001,0.07366126775741577,0.02367997169494629,0.13180291652679443,-0.16856354475021362,-0.7167041301727295,0.9464707970619202,false
93331.107541,0.10723268985748291,0.11407643556594849,0.09295189380645752,0.0819477066397667,-0.7623113393783569,0.9127079248428345,false
93331.11750000001,0.11231553554534912,0.12022274732589722,0.008713483810424805,0.14137321710586548,-0.7957074046134949,0.90289705991745,false
93331.12745900001,0.10188770294189453,0.059284210205078125,-0.0006862133741378784,0.09461823105812073,-0.7608591914176941,0.8861010670661926,false
93331.137418,0.08703058958053589,0.01106494665145874,0.02446344494819641,0.03489045053720474,-0.6945211291313171,0.8780689835548401,false
93331.14737600001,0.08392810821533203,-0.0197942852973938,0.06508088111877441,0.039669688791036606,-0.6494027376174927,0.8928529024124146,false
93331.15733500001,0.08476871252059937,-0.02448505163192749,0.09656575322151184,0.09224235266447067,-0.5941509008407593,0.8983299732208252,false
93331.167294,0.06947362422943115,-0.02379673719406128,0.0833081603050232,0.10049189627170563,-0.5343047976493835,0.8618067502975464,false
93331.177253,0.04011368751525879,-0.037075579166412354,0.05887219309806824,-0.14403289556503296,-0.5020807981491089,0.7753488421440125,false
93331.18721100001,0.01546555757522583,-0.0860334038734436,0.08130675554275513,-0.475098580121994,-0.471111536026001,0.7609100341796875,false
93331.19717,-0.00200808048248291,-0.10563313961029053,0.20037466287612915,-0.5840378403663635,-0.5235286951065063,0.6935304403305054,false
93331.207129,0.020161569118499756,-0.031019896268844604,0.20349735021591187,-0.3898223638534546,-0.5660732984542847,0.5821247696876526,false
93331.21708700001,0.03742384910583496,0.07588383555412292,0.11784690618515015,-0.14563950896263123,-0.551569402217865,0.5388857126235962,false
93331.227046,0.007716357707977295,0.10128411650657654,0.07236471772193909,0.09763126075267792,-0.4785369634628296,0.49113449454307556,false
93331.237005,-0.037262916564941406,0.08225393295288086,0.07158902287483215,0.26958808302879333,-0.4114775061607361,0.4794549345970154,false
93331.246963625,-0.05530780553817749,0.06222379207611084,0.0663180947303772,0.5395678281784058,-0.2891509532928467,0.4880622923374176,false
93331.25692162501,-0.03644430637359619,0.06764259934425354,0.06700694561004639,0.7550671100616455,-0.19806896150112152,0.5372481942176819,false
93331.266880625,0.0012514591217041016,0.038369446992874146,0.06742203235626221,0.8552027344703674,-0.11466248333454132,0.5485973954200745,false
93331.276839625,0.04040724039077759,0.006723195314407349,0.04379042983055115,0.7848241925239563,-0.06265361607074738,0.4669038951396942,false
93331.286798625,0.05957591533660889,-0.0014852583408355713,0.013093292713165283,0.5050036311149597,-0.04556896910071373,0.3871854841709137,false
93331.296756625,0.0591011643409729,-0.0344884991645813,0.02859550714492798,0.02475845068693161,-0.04281206429004669,0.39941713213920593,false
93331.306715625,0.02703726291656494,-0.10771387815475464,0.12103059887886047,-0.32247814536094666,-0.03335737809538841,0.42052096128463745,false
93331.316674625,-0.019319474697113037,-0.12734580039978027,0.17789748311042786,-0.357904314994812,-0.02929925173521042,0.420188844203949,false
93331.326632625,-0.04482734203338623,-0.07569947838783264,0.1342625916004181,-0.15475983917713165,0.0023706594947725534,0.45487645268440247,false
93331.336591625,-0.053390324115753174,-0.01339411735534668,0.08327150344848633,0.1417943388223648,0.06774061173200607,0.4823991358280182,false
93331.346550625,-0.0435793399810791,0.03383803367614746,0.05225077271461487,0.4978213608264923,0.1539185792207718,0.5040392279624939,false
93331.35650962501,-0.006173253059387207,0.07316330075263977,0.0032539665699005127,0.7693599462509155,0.21676518023014069,0.5211731791496277,false
93331.366467625,0.06962651014328003,0.07830166816711426,-0.037493377923965454,0.7641237378120422,0.21206402778625488,0.5148066878318787,false
93331.37642662501,0.1373111605644226,0.03965860605239868,-0.05796259641647339,0.5061225891113281,0.22290337085723877,0.559983491897583,false
93331.38638562501,0.15623456239700317,-0.04352599382400513,-0.01113840937614441,0.16820475459098816,0.1787940263748169,0.6097142100334167,false
93331.39634462501,0.1369335651397705,-0.10379484295845032,0.03845667839050293,-0.09943254292011261,0.12133552879095078,0.6587075591087341,false
93331.40630262501,0.08637112379074097,-0.10987308621406555,0.03533586859703064,-0.2604545056819916,0.07192503660917282,0.693991482257843,false
93331.41626162501,0.030580759048461914,-0.0795157253742218,-0.0018153488636016846,-0.2380184382200241,0.04081691801548004,0.724699854850769,false
93331.426220625,-0.018971145153045654,-0.038630008697509766,-0.04058659076690674,-0.07311718165874481,0.026111142709851265,0.8017137050628662,false
93331.43617862501,-0.04864239692687988,-0.020724445581436157,-0.044167160987854004,0.16984540224075317,0.005129960365593433,0.8514685034751892,false
93331.44613762501,-0.0745769739151001,0.010717779397964478,-0.025875985622406006,0.4975140690803528,0.06952732801437378,0.9167191982269287,false
93331.456096625,-0.1060895323753357,0.04381704330444336,-0.01976799964904785,0.7996699810028076,0.12542201578617096,0.9518768787384033,false
93331.466055625,-0.11470544338226318,0.08255690336227417,-0.03110295534133911,1.0463335514068604,0.15936580300331116,0.9697464108467102,false
93331.47601362501,-0.10030490159988403,0.1261855661869049,-0.04233178496360779,1.1427761316299438,0.12708589434623718,0.9613382816314697,false
93331.485972625,-0.0952005386352539,0.1325741708278656,-0.055596232414245605,0.9404881596565247,0.08416206389665604,0.9917844533920288,false
93331.495931625,-0.10699886083602905,0.07967942953109741,-0.04167598485946655,0.5619637966156006,0.04873349890112877,1.0757931470870972,false
93331.505890625,-0.09984171390533447,0.021994829177856445,0.021741122007369995,0.18781201541423798,0.008768770843744278,1.1618090867996216,false
93331.515848625,-0.06684279441833496,0.019295185804367065,0.08007723093032837,-0.002883628476411104,-0.049140069633722305,1.188513159751892,false
93331.525807625,-0.026116788387298584,0.08248427510261536,0.07366174459457397,0.04053208976984024,-0.05118903890252113,1.1720188856124878,false
93331.535766625,-0.0036618709564208984,0.17224061489105225,0.04099336266517639,0.19541087746620178,-0.01674184948205948,1.1254504919052124,false
93331.545724625,0.004268467426300049,0.23085419833660126,0.015679270029067993,0.29948195815086365,0.024320432916283607,1.0481559038162231,false
93331.555683625,0.012420833110809326,0.2480674535036087,-0.0024774372577667236,0.23952196538448334,0.02197978086769581,0.9618322253227234,false
93331.565642625,0.025524616241455078,0.22365663945674896,-0.033911287784576416,0.09505897760391235,0.023051105439662933,0.9110733866691589,false
93331.57560162501,0.035838425159454346,0.1670123040676117,-0.022864550352096558,-0.06910918653011322,0.037863072007894516,0.9254400730133057,false
93331.585559625,0.02756887674331665,0.12289001047611237,0.03590771555900574,-0.215776726603508,0.033472251147031784,0.9379963874816895,false
93331.595518625,-0.0014401078224182129,0.1047675609588623,0.06748020648956299,-0.2560562491416931,0.04193497821688652,0.9399740695953369,false
93331.60547762501,-0.03472322225570679,0.12558521330356598,0.06779608130455017,-0.1597169190645218,0.07446415722370148,0.9201687574386597,false
93331.61543662501,-0.057353198528289795,0.17737926542758942,0.05349820852279663,0.07245106995105743,0.10738854855298996,0.8886424899101257,false
93331.625394625,-0.0604434609413147,0.21991467475891113,0.029592394828796387,0.37561482191085815,0.15983086824417114,0.8367962837219238,false
93331.63535362501,-0.040801048278808594,0.2533782124519348,0.006435126066207886,0.7491700053215027,0.2076340764760971,0.7726505994796753,false
93331.64531262501,-0.014594495296478271,0.28762686252593994,0.0016236603260040283,1.0923875570297241,0.2596277594566345,0.7298636436462402,false
93331.655271625,-0.004454195499420166,0.3018590807914734,0.006862431764602661,1.3912792205810547,0.30330997705459595,0.6552807688713074,false
93331.66522962501,-0.007711529731750488,0.3215949237346649,0.009436994791030884,1.6466439962387085,0.39094364643096924,0.5933123230934143,false
93331.675188625,-0.02855783700942993,0.3271607756614685,0.013877511024475098,1.7783766984939575,0.4770050346851349,0.516372799873352,false
93331.685147625,-0.059592247009277344,0.30799993872642517,0.009802192449569702,1.728356122970581,0.5474772453308105,0.4341434836387634,false
93331.69510562501,-0.08798164129257202,0.2552802264690399,0.01966249942779541,1.6031800508499146,0.5995127558708191,0.3721373677253723,false
93331.705064625,-0.10445648431777954,0.22197633981704712,0.05747956037521362,1.5377616882324219,0.6205822825431824,0.2667727470397949,false
93331.715023625,-0.1066998839378357,0.22798454761505127,0.03845822811126709,1.5344159603118896,0.652367353439331,0.1801001876592636,false
93331.724982625,-0.10814166069030762,0.23788122832775116,0.012614905834197998,1.560846209526062,0.689640998840332,0.10355101525783539,false
93331.734940625,-0.10189962387084961,0.24995487928390503,0.005919605493545532,1.5986324548721313,0.7375049591064453,0.03616611286997795,false
93331.744899625,-0.08304184675216675,0.25656288862228394,-0.004760324954986572,1.7013592720031738,0.7792456746101379,-0.03452461585402489,false
93331.754858625,-0.0480465292930603,0.25921380519866943,-0.022012710571289062,1.870813012123108,0.8019437789916992,-0.0865020602941513,false
93331.76481762501,-0.013951301574707031,0.26168596744537354,-0.05124026536941528,2.014559507369995,0.7948081493377686,-0.1613789200782776,false
93331.774775625,-0.001744985580444336,0.2662641704082489,-0.07240191102027893,2.111480951309204,0.8111586570739746,-0.22255493700504303,false
93331.784734625,-0.01948702335357666,0.2596260905265808,-0.06682425737380981,2.1396918296813965,0.8493277430534363,-0.2663390636444092,false
93331.79469362501,-0.061370670795440674,0.23591136932373047,-0.04208439588546753,2.089266300201416,0.8939511179924011,-0.3022722899913788,false
93331.80465262501,-0.11674392223358154,0.1955559402704239,-0.031355470418930054,1.858823299407959,0.9431273937225342,-0.31012287735939026,false
93331.814610625,-0.1674702763557434,0.12649750709533691,-0.019164979457855225,1.5882568359375,0.9778385162353516,-0.3456787168979645,false
93331.82456962501,-0.18662571907043457,0.08962451666593552,-0.026068687438964844,1.3932671546936035,0.9966925978660583,-0.40904346108436584,false
93331.83452862501,-0.17835897207260132,0.0952775776386261,-0.04750514030456543,1.2739330530166626,1.0074008703231812,-0.45877373218536377,false
93331.844486625,-0.1483907699584961,0.12204781174659729,-0.06201265752315521,1.2103842496871948,1.0201890468597412,-0.4961291253566742,false
93331.85444562501,-0.10688942670822144,0.1403960883617401,-0.07342790067195892,1.1345393657684326,1.0139857530593872,-0.528165340423584,false
93331.86440462501,-0.057736337184906006,0.1337621510028839,-0.07675912976264954,1.0083171129226685,1.0311155319213867,-0.5296377539634705,false
93331.874363625,-0.0010184645652770996,0.11614818125963211,-0.06860415637493134,0.8737549781799316,1.0678181648254395,-0.5189792513847351,false
93331.88432162501,0.07323020696640015,0.10516770929098129,-0.06613920629024506,0.7809373736381531,1.097461462020874,-0.5329521298408508,false
93331.89428062501,0.1573026180267334,0.11213690787553787,-0.07036207616329193,0.7557348608970642,1.0675758123397827,-0.5381580591201782,false
93331.904239625,0.23338419198989868,0.12507590651512146,-0.09321421384811401,0.7491273880004883,0.9625923037528992,-0.5471305251121521,false
93331.914198625,0.28994041681289673,0.14467871189117432,-0.11931969225406647,0.740786612033844,0.8245923519134521,-0.5739411115646362,false
93331.924156625,0.2976069450378418,0.15847022831439972,-0.13289381563663483,0.6427735090255737,0.7370100021362305,-0.6310502290725708,false
93331.934115625,0.24269956350326538,0.15628618001937866,-0.11382997035980225,0.558988094329834,0.7083190083503723,-0.7064837217330933,false
93331.944074625,0.1637181043624878,0.14491905272006989,-0.08310513198375702,0.576725423336029,0.7027819156646729,-0.7942067384719849,false
93331.954033625,0.10757553577423096,0.12899917364120483,-0.04951208829879761,0.6625375151634216,0.6858556270599365,-0.9024136066436768,false
93331.963991625,0.08319211006164551,0.10688771307468414,-0.01569920778274536,0.7074612379074097,0.6440489888191223,-1.0766327381134033,false
93331.973950625,0.06564474105834961,0.0796688050031662,-0.0160830020904541,0.7463500499725342,0.5856876969337463,-1.363215446472168,false
93331.983909625,0.0304110050201416,0.04957541823387146,-0.030433908104896545,0.6674942970275879,0.5719054341316223,-1.6861648559570312,false
93331.99386862501,-0.04020506143569946,-0.0017951130867004395,-0.029918968677520752,0.4512575566768646,0.6142305135726929,-1.9741207361221313,false
93332.003826625,-0.12080323696136475,-0.09258368611335754,-0.030755996704101562,0.12236902117729187,0.6654754281044006,-2.2138376235961914,false
93332.01378562501,-0.16094744205474854,-0.21313582360744476,-0.028837554156780243,-0.18992522358894348,0.647059977054596,-2.396268606185913,false
93332.02374462501,-0.11435818672180176,-0.2846578061580658,-0.03131919354200363,-0.4840015769004822,0.5615610480308533,-2.5514934062957764,false
93332.033702625,-0.0049797892570495605,-0.28469428420066833,-0.05182158946990967,-0.7313584089279175,0.4405510127544403,-2.657977342605591,false
93332.04366162501,0.10650569200515747,-0.2505567669868469,-0.0784459039568901,-0.9367138147354126,0.32876861095428467,-2.680204153060913,false
93332.05362062501,0.1870260238647461,-0.22036954760551453,-0.06711989641189575,-1.0693286657333374,0.23170918226242065,-2.635333299636841,false
93332.063579625,0.2516123652458191,-0.1625513732433319,-0.01499074324965477,-1.1142261028289795,0.16836290061473846,-2.6222376823425293,false
93332.07353762501,0.2985337972640991,-0.06333285570144653,0.01905227079987526,-1.0480763912200928,0.13280969858169556,-2.679978370666504,false
93332.08349662501,0.3115410804748535,0.031217902898788452,0.053551916033029556,-0.9217139482498169,0.13503849506378174,-2.7134621143341064,false
93332.093455625,0.30721330642700195,0.09136027097702026,0.10466229915618896,-0.7288401126861572,0.12646205723285675,-2.724496841430664,false
93332.103414625,0.29158103466033936,0.12749159336090088,0.1293441653251648,-0.46964767575263977,0.10647182911634445,-2.7515454292297363,false
93332.11337262501,0.2566766142845154,0.13315722346305847,0.11849337816238403,-0.2470492273569107,0.11864034086465836,-2.727457284927368,false
93332.123331625,0.20810729265213013,0.09830066561698914,0.11155480146408081,-0.12021724879741669,0.122785285115242,-2.702037811279297,false
93332.133290625,0.16095411777496338,0.04889291524887085,0.09039419889450073,-0.15498508512973785,0.10020753741264343,-2.7384846210479736,false
93332.143249625,0.1197819709777832,0.01103299856185913,0.0560835562646389,-0.27346259355545044,0.10490016639232635,-2.77477765083313,false
93332.153207625,0.08581119775772095,-0.011018931865692139,0.027360733598470688,-0.24965313076972961,0.11789719015359879,-2.7896785736083984,false
93332.163166625,0.05519217252731323,-0.02097189426422119,0.0064663272351026535,0.032656989991664886,0.16896235942840576,-2.804758310317993,false
93332.173125625,0.01421278715133667,0.009519696235656738,0.03049689531326294,0.6313549876213074,0.28946560621261597,-2.7933287620544434,false
93332.18308462501,-0.040583133697509766,0.07806849479675293,0.07854640483856201,1.3498374223709106,0.4483499526977539,-2.6987133026123047,false
93332.193042625,-0.09726369380950928,0.1069040298461914,0.12184512615203857,2.025083303451538,0.5440053343772888,-2.628971815109253,false
93332.203001625,-0.12319618463516235,0.10458230972290039,0.09338849782943726,2.4815807342529297,0.5592843294143677,-2.6245663166046143,false
93332.21296062501,-0.10304641723632812,0.09406989812850952,0.030786752700805664,2.51391339302063,0.4919884502887726,-2.673776626586914,false
93332.22291962501,-0.04930835962295532,0.06719666719436646,0.015297651290893555,2.110745906829834,0.37675830721855164,-2.73317551612854,false
93332.232877625,0.00838327407836914,-0.0059195756912231445,0.05496550351381302,1.4360806941986084,0.2917097210884094,-2.777707099914551,false
93332.24283675001,0.04313194751739502,-0.08688092231750488,0.112434983253479,0.7480382919311523,0.2724355459213257,-2.8161983489990234,false
93332.25279575,0.04138821363449097,-0.13476282358169556,0.1621745228767395,0.19581535458564758,0.3178592324256897,-2.7819924354553223,false
93332.26275375001,0.024590790271759033,-0.13692986965179443,0.18642467260360718,-0.04095551371574402,0.36105024814605713,-2.778660535812378,false
93332.27271275001,0.029781997203826904,-0.056665241718292236,0.16394490003585815,0.10943159461021423,0.3594052195549011,-2.7997639179229736,false
93332.28267175,0.04811108112335205,0.045603930950164795,0.0912487581372261,0.4908272922039032,0.3041546046733856,-2.818081855773926,false
93332.29263075,0.068997323513031,0.10783350467681885,0.048402972519397736,0.9021325707435608,0.2637467384338379,-2.838620662689209,false
93332.30258875001,0.07540619373321533,0.14412981271743774,0.054031796753406525,1.165094256401062,0.2894511818885803,-2.881030559539795,false
93332.31254775,0.06728368997573853,0.1424485445022583,0.10263330489397049,1.229662299156189,0.3547295033931732,-2.9073309898376465,false
93332.32250675,0.06579580903053284,0.08981448411941528,0.15541987121105194,1.1456395387649536,0.4000316560268402,-2.9453306198120117,false
93332.33246575,0.08584904670715332,0.029256343841552734,0.17591023445129395,1.0124565362930298,0.3732389509677887,-2.919203519821167,false
93332.34242375,0.11557188630104065,-0.01693880558013916,0.17437517642974854,0.879239559173584,0.2814493775367737,-2.802049398422241,false
93332.35238275,0.14855614304542542,-0.06145143508911133,0.17046701908111572,0.7775813937187195,0.1783413589000702,-2.7090210914611816,false
93332.36234175,0.16004326939582825,-0.07707810401916504,0.15204596519470215,0.6878557205200195,0.12779216468334198,-2.6450557708740234,false
93332.37230075001,0.14776846766471863,-0.034925639629364014,0.14597578346729279,0.7372682690620422,0.12885475158691406,-2.609097957611084,false
93332.38225875,0.12734755873680115,0.05069392919540405,0.13567377626895905,0.8905266523361206,0.17639225721359253,-2.5731301307678223,false
93332.39221775,0.12002411484718323,0.1263258457183838,0.11639529466629028,0.9865788817405701,0.19204925000667572,-2.519104480743408,false
93332.40217675001,0.14188304543495178,0.15135693550109863,0.11807024478912354,0.9062912464141846,0.16801828145980835,-2.438844680786133,false
93332.41213575001,0.17660123109817505,0.08878076076507568,0.15351545810699463,0.5367299914360046,0.11826537549495697,-2.2907209396362305,false
93332.42209375,0.20952680706977844,0.011279642581939697,0.18783466517925262,0.14669781923294067,0.0645424872636795,-2.2381837368011475,false
93332.43205275001,0.2418190836906433,0.028931856155395508,0.15695255994796753,-0.06740756332874298,0.0351337306201458,-2.2149360179901123,false
93332.44201175001,0.2783549726009369,0.0952712893486023,0.08685214817523956,-0.08083288371562958,-0.034779906272888184,-2.164858818054199,false
93332.45197075,0.33245426416397095,0.15246903896331787,0.03808891773223877,0.13108575344085693,-0.14279133081436157,-2.112116813659668,false
93332.46192875001,0.3775133490562439,0.1807478666305542,0.017156243324279785,0.43417298793792725,-0.23356270790100098,-2.0639760494232178,false
93332.47188775001,0.3944414258003235,0.17581039667129517,0.007623195648193359,0.5585526823997498,-0.2775869071483612,-2.024566173553467,false
93332.48184675,0.38828349113464355,0.1415398120880127,0.032410234212875366,0.5423415899276733,-0.27810508012771606,-2.0219407081604004,false
93332.49180475001,0.3630976676940918,0.06522506475448608,0.07339751720428467,0.40516671538352966,-0.24813279509544373,-1.9230247735977173,false
93332.50176375,0.3340054750442505,-0.06950443983078003,0.12244036793708801,0.20412281155586243,-0.22437500953674316,-1.7514690160751343,false
93332.51172275,0.3152467906475067,-0.18880975246429443,0.14151407778263092,0.22487176954746246,-0.20209793746471405,-1.6445350646972656,false
93332.52168175,0.29225414991378784,-0.2246679663658142,0.09151583909988403,0.35624170303344727,-0.15676192939281464,-1.5510516166687012,false
93332.53163975,0.2668593227863312,-0.20350170135498047,0.06423276662826538,0.5148148536682129,-0.03732023015618324,-1.4533008337020874,false
93332.54159875,0.2503390908241272,-0.14307928085327148,0.08037564158439636,0.7446368932723999,0.1387789100408554,-1.4097751379013062,false
93332.55155775,0.2369590401649475,-0.1535128355026245,0.15790583193302155,0.8416038751602173,0.3595709502696991,-1.023645281791687,false
93332.56151675001,0.25348401069641113,-0.4209705591201782,0.3687008321285248,0.3787015676498413,0.43502742052078247,-0.45434823632240295,false
93332.57147475,0.335292249917984,-0.7266507744789124,0.43645578622817993,-0.4267613887786865,0.2776116728782654,-0.6335198879241943,false
93332.58143375,0.38620853424072266,-0.5938973426818848,0.1749994456768036,-0.440003365278244,0.3495144546031952,-0.9513192176818848,false
93332.59139275001,0.36808016896247864,-0.2122715711593628,0.09709638357162476,0.027620017528533936,0.3991941213607788,-0.6836898922920227,false
93332.60135175001,0.4030921459197998,-0.09539967775344849,0.10093605518341064,0.38331353664398193,0.14900490641593933,-0.5554760098457336,false
93332.61130975,0.4135951101779938,0.024663686752319336,0.006803825497627258,0.8682366013526917,0.15125739574432373,-0.6403224468231201,false
93332.62126875001,0.3441828787326813,0.1848493218421936,-0.04642614722251892,1.0755091905593872,0.24631401896476746,-0.5933446884155273,false
93332.63122775001,0.33898866176605225,0.027709901332855225,-0.0427396297454834,0.5340297222137451,0.10035042464733124,-0.3979453444480896,false
93332.64118675,0.3854002356529236,-0.22305142879486084,0.036573946475982666,-0.09732384979724884,-0.15415064990520477,-0.19568398594856262,false
93332.65114475001,0.4065885543823242,-0.32651370763778687,0.061505332589149475,-0.5034865736961365,-0.33974847197532654,-0.049159254878759384,false
93332.66110375001,0.3945074677467346,-0.3785720467567444,-0.005898863077163696,-0.7369781732559204,-0.4469389021396637,0.04366011545062065,false
93332.67106275,0.3565145432949066,-0.37214577198028564,-0.04603604972362518,-0.7988188862800598,-0.5253298878669739,0.1820659339427948,false
93332.68102175,0.30787816643714905,-0.35371994972229004,-0.05279557406902313,-0.8215225338935852,-0.5926273465156555,0.36979979276657104,false
93332.69097975001,0.2641065716743469,-0.39992469549179077,-0.04756627976894379,-0.9412931203842163,-0.6002538204193115,0.6199169754981995,false
93332.70093875,0.22840146720409393,-0.49996232986450195,-0.011405810713768005,-1.1260091066360474,-0.5789313316345215,0.9014672636985779,false
93332.71089775,0.2014966607093811,-0.5891987681388855,0.04228903353214264,-1.2612500190734863,-0.5426819324493408,1.1867120265960693,false
93332.72085675,0.19050586223602295,-0.6121148467063904,0.07042324542999268,-1.1847987174987793,-0.5202749371528625,1.4473260641098022,false
93332.73081475,0.19759593904018402,-0.5506934523582458,0.061265647411346436,-0.9330636262893677,-0.5441685318946838,1.6942836046218872,false
93332.74077375,0.22549381852149963,-0.4622965455055237,0.02540077269077301,-0.671422004699707,-0.6031643748283386,1.937585473060608,false
93332.75073275,0.26510921120643616,-0.4041118621826172,0.006644204258918762,-0.49869203567504883,-0.6856318116188049,2.180104970932007,false
93332.76069175001,0.2947196364402771,-0.38548243045806885,-0.004501804709434509,-0.46595901250839233,-0.7729748487472534,2.419968366622925,false
93332.77064975,0.3056861460208893,-0.408095121383667,-0.025162920355796814,-0.5651659965515137,-0.8296586275100708,2.652252435684204,false
93332.78060875,0.2987597584724426,-0.4444688558578491,-0.043070852756500244,-0.7766479253768921,-0.8609883189201355,2.875486135482788,false
93332.79056775001,0.2818338871002197,-0.46728479862213135,-0.07602941989898682,-1.0402846336364746,-0.894500195980072,3.070263147354126,false
93332.80052675001,0.2691050171852112,-0.48882830142974854,-0.12235772609710693,-1.3561334609985352,-0.9256691336631775,3.2711880207061768,false
93332.81048475,0.27291494607925415,-0.5241963267326355,-0.14448204636573792,-1.7047542333602905,-0.9922742247581482,3.4595866203308105,false
93332.82044375001,0.2961879074573517,-0.5375292301177979,-0.14445459842681885,-1.970217227935791,-1.1222553253173828,3.608673334121704,false
93332.83040275001,0.3184405565261841,-0.5298470258712769,-0.15886950492858887,-2.192094326019287,-1.2112568616867065,3.809906482696533,false
93332.84036075001,0.33998119831085205,-0.5191963315010071,-0.16964328289031982,-2.3201348781585693,-1.3983885049819946,3.9565892219543457,false
93332.85031975001,0.3673569858074188,-0.46346837282180786,-0.205730140209198,-2.3908820152282715,-1.5424505472183228,4.089644908905029,false
93332.86027875,0.3853858411312103,-0.4118022322654724,-0.24621397256851196,-2.5343267917633057,-1.6878445148468018,4.20782995223999,false
93332.87023775,0.40983065962791443,-0.3701692819595337,-0.2833794355392456,-2.64269757270813,-1.861614465713501,4.314108371734619,false
93332.88019575001,0.4460694491863251,-0.34443777799606323,-0.29087841510772705,-2.610560655593872,-2.0543484687805176,4.3970537185668945,false
93332.89015475,0.4848628044128418,-0.29823750257492065,-0.2875356674194336,-2.448674201965332,-2.243272304534912,4.498147010803223,false
93332.90011375,0.5127676129341125,-0.20104491710662842,-0.288158655166626,-2.2055459022521973,-2.4357712268829346,4.57327938079834,false
93332.91007275,0.5370591878890991,-0.13301223516464233,-0.3221625089645386,-2.024869918823242,-2.6039445400238037,4.628778457641602,false
93332.92003075,0.5693275928497314,-0.11147981882095337,-0.3385094404220581,-1.9677790403366089,-2.808549642562866,4.647594928741455,false
93332.92998975,0.608925461769104,-0.10095405578613281,-0.3379608392715454,-2.0851078033447266,-3.056804895401001,4.647322177886963,false
93332.93994875,0.6518129706382751,-0.10503172874450684,-0.32282912731170654,-2.3808226585388184,-3.324568033218384,4.597268104553223,false
93332.94990775001,0.6879467368125916,-0.11303263902664185,-0.29635536670684814,-2.7748258113861084,-3.5210089683532715,4.523864269256592,false
93332.95986575,0.6976760625839233,-0.10688483715057373,-0.23712122440338135,-3.1675870418548584,-3.68251371383667,4.44185733795166,false
93332.96982475,0.696128249168396,-0.06668418645858765,-0.18384546041488647,-3.4287543296813965,-3.82698655128479,4.303740501403809,false
93332.97978375001,0.7172756195068359,0.02517402172088623,-0.16979491710662842,-3.5139474868774414,-3.981621742248535,4.034061431884766,false
93332.98974275001,0.7675818204879761,0.15181046724319458,-0.1967235803604126,-3.607834815979004,-4.138006210327148,3.701115846633911,false
93332.99970075,0.7993159890174866,0.23929566144943237,-0.22452712059020996,-3.7638466358184814,-4.226422309875488,3.4370172023773193,false
93333.00965975001,0.7959612011909485,0.24528074264526367,-0.1966550350189209,-3.943143844604492,-4.275934219360352,3.179760217666626,false
93333.01961875001,0.7708380222320557,0.20880791544914246,-0.1424415111541748,-4.147563457489014,-4.3438262939453125,2.9528071880340576,false
93333.02957775,0.7299865484237671,0.18167847394943237,-0.09118031710386276,-4.130125522613525,-4.38881778717041,2.7351882457733154,false
93333.03953575001,0.7053471803665161,0.2375103235244751,-0.04452544450759888,-3.9859561920166016,-4.392613410949707,2.446169137954712,false
93333.04949475001,0.692589282989502,0.34771108627319336,-0.03515106439590454,-3.7938804626464844,-4.370933532714844,2.1563961505889893,false
93333.05945375,0.7031060457229614,0.4307580888271332,0.010862588882446289,-3.784921884536743,-4.452740669250488,1.8431814908981323,false
93333.06941275,0.7453696131706238,0.45237070322036743,0.0641043484210968,-3.992739677429199,-4.506561756134033,1.4847158193588257,false
93333.07937075001,0.7495986819267273,0.4500961899757385,0.10582996904850006,-4.136019706726074,-4.453685283660889,1.1472162008285522,false
93333.08932975,0.6586253643035889,0.44153136014938354,0.17788733541965485,-4.231322765350342,-4.381709098815918,0.8551291823387146,false
93333.09928875,0.5507875084877014,0.44110509753227234,0.2483503222465515,-4.261351585388184,-4.294545650482178,0.4629392623901367,false
93333.10924775,0.48753881454467773,0.4772815406322479,0.24624565243721008,-4.328939437866211,-4.167444229125977,0.11983997374773026,false
93333.11920575,0.4658241868019104,0.5028067827224731,0.22752845287322998,-4.35286283493042,-4.1526970863342285,-0.24409164488315582,false
93333.12916475,0.5501024127006531,0.5863533020019531,0.2283923625946045,-4.703836917877197,-4.004578113555908,-0.7444987893104553,false
93333.13912375,0.5742594003677368,0.6883341073989868,0.24293693900108337,-5.319335460662842,-3.808779239654541,-1.3517693281173706,false
93333.14908275001,0.44026654958724976,0.751915454864502,0.3278867304325104,-5.670712947845459,-3.5756590366363525,-1.936326503753662,false
93333.15904075,0.33375316858291626,0.8211250901222229,0.31926414370536804,-5.438891410827637,-3.3919591903686523,-2.4267611503601074,false
93333.16899975,0.29917240142822266,0.89714515209198,0.25217366218566895,-4.8134613037109375,-3.199747085571289,-2.7956039905548096,false
93333.17895875001,0.3380599021911621,0.9594693183898926,0.2060796022415161,-4.462252140045166,-2.9758825302124023,-3.1415374279022217,true
93333.18891775001,0.3437068462371826,0.9081020951271057,0.2710634768009186,-4.4687018394470215,-2.6872339248657227,-3.508230209350586,false
93333.19887575001,0.3846158981323242,0.821009635925293,0.4720657169818878,-5.428903102874756,-2.2467195987701416,-3.7802367210388184,false
93333.20883475001,0.3724338412284851,0.5746577382087708,0.8898007869720459,-6.563187122344971,-1.8039720058441162,-3.969785690307617,false
93333.21879375,0.2866017818450928,0.26460927724838257,1.405569076538086,-6.887872695922852,-1.4543684720993042,-4.346800327301025,false
93333.22875275,0.35956716537475586,0.20142489671707153,1.603158950805664,-6.67374324798584,-0.5711303353309631,-4.876926422119141,false
93333.23871075001,0.2552211284637451,0.45176124572753906,1.0204286575317383,-8.301915168762207,-0.2302369475364685,-3.9968180656433105,false
93333.248669875,0.16198372840881348,-0.5859850645065308,1.0652610063552856,-7.546316623687744,0.1567017138004303,-2.8804235458374023,false
93333.258628875,0.6235160231590271,-1.6366543769836426,1.781419038772583,-3.76914644241333,0.8294433951377869,-2.851433753967285,false
93333.268587875,0.6077723503112793,-1.111114501953125,1.5320123434066772,-2.226816177368164,1.904007911682129,-3.5286612510681152,false
93333.278545875,-0.06994485855102539,-0.5148812532424927,1.1574490070343018,-3.4295926094055176,2.183225631713867,-2.4505653381347656,false
93333.288504875,-0.2690748870372772,-1.4779223203659058,1.749433994293213,-4.023495197296143,2.5488204956054688,-2.1331307888031006,false
93333.298463875,0.2417592704296112,-1.9139541387557983,1.938472867012024,-2.543856620788574,2.4070444107055664,-1.9570168256759644,false
93333.30842287501,0.483845055103302,-1.6389601230621338,0.910788893699646,-3.4773566722869873,2.800041437149048,-1.621089220046997,false
93333.318380875,0.35011428594589233,-1.731407880783081,0.2758064270019531,-3.3629143238067627,2.9207191467285156,-0.3626764714717865,false
93333.328339875,0.5351009964942932,-2.1798288822174072,0.5927084684371948,-2.075636148452759,3.1843817234039307,-0.04271978139877319,false
93333.33829887501,0.6389313340187073,-2.221292018890381,0.8683396577835083,-1.2067538499832153,3.8007709980010986,0.1514698565006256,false
93333.34825787501,0.25509849190711975,-1.1170086860656738,0.45901942253112793,-1.393798828125,3.70831561088562,0.31307873129844666,false
93333.358215875,0.5067852735519409,-1.2388317584991455,0.4844827651977539,-0.7170137166976929,3.2103703022003174,1.4741435050964355,false
93333.36817487501,1.1022579669952393,-1.4276585578918457,0.44252949953079224,0.28132420778274536,2.996391534805298,1.0596818923950195,false
93333.37813387501,1.2024166584014893,-0.9765853881835938,-0.008787572383880615,-0.3514569401741028,3.313978433609009,1.1920973062515259,false
93333.388092875,0.565494179725647,-0.25131314992904663,-0.49788931012153625,-1.214949369430542,3.1052443981170654,2.0648248195648193,false
93333.39805087501,0.5432626605033875,-0.7304795980453491,-0.2677823603153229,-0.5261294841766357,3.101545810699463,2.469715118408203,false
93333.40800987501,0.62851482629776,-0.8141854405403137,0.1384863257408142,0.8572779893875122,3.1484782695770264,1.6385658979415894,false
93333.417968875,0.2719573676586151,0.2935372591018677,-0.17033171653747559,1.1453721523284912,3.1339728832244873,1.8229272365570068,false
93333.42792687501,0.022274523973464966,0.6590284705162048,-0.5746893286705017,0.43436646461486816,2.6749470233917236,2.035029649734497,false
93333.437885875,0.407875657081604,-0.0877993106842041,-0.3308669924736023,0.16410915553569794,2.501234531402588,2.0948636531829834,false
93333.447844875,0.7088896036148071,0.01660066843032837,-0.36679691076278687,1.15322744846344,2.225031852722168,2.26025128364563,false
93333.457803875,0.7420148849487305,0.46159982681274414,-0.36878252029418945,2.032479763031006,2.190203905105591,1.6028562784194946,false
93333.467761875,0.5902185440063477,0.9249714612960815,-0.5192035436630249,1.7711971998214722,2.3132715225219727,0.9377022981643677,false
93333.477720875,0.30582863092422485,1.15077543258667,-0.8195288777351379,0.6517000198364258,2.0947487354278564,1.1357059478759766,false
93333.487679875,0.31908726692199707,0.6002523899078369,-0.8853809237480164,-0.19068068265914917,1.8515480756759644,1.239916443824768,false
93333.49763887501,0.5046027898788452,0.0720057487487793,-0.7307624220848083,0.22455239295959473,1.9575055837631226,1.0611822605133057,false
93333.507596875,0.39485493302345276,0.34811514616012573,-0.6250108480453491,1.623801350593567,2.101212501525879,1.079378604888916,false
93333.517555875,0.21037203073501587,0.6971204280853271,-0.548762321472168,3.00917649269104,2.2847039699554443,1.0084846019744873,false
93333.52751487501,0.21428951621055603,0.6939816474914551,-0.42389559745788574,3.9253249168395996,2.2883872985839844,0.8527393937110901,false
93333.53747387501,0.2870155870914459,0.5687527656555176,-0.40413323044776917,4.1226277351379395,2.0035791397094727,0.5099029541015625,false
93333.547432875,0.4093605875968933,0.4478868246078491,-0.4060577154159546,4.009512901306152,1.704610824584961,0.22927263379096985,false
93333.55739087501,0.4545639157295227,0.38223356008529663,-0.4075474739074707,3.562708616256714,1.46771240234375,-0.12968295812606812,false
93333.56734987501,0.39187881350517273,0.33250683546066284,-0.4085453450679779,3.103269100189209,1.4748725891113281,-0.4610113799571991,false
93333.577308875,0.2538987100124359,0.41873741149902344,-0.334177702665329,2.704988479614258,1.5890556573867798,-0.7225472927093506,false
93333.58726687501,0.10841399431228638,0.44106292724609375,-0.29141855239868164,2.5039186477661133,1.6892038583755493,-0.8726113438606262,false
93333.59722587501,0.03324970602989197,0.36768537759780884,-0.27472683787345886,2.6883602142333984,1.7678650617599487,-0.7890985608100891,false
93333.607184875,0.026765257120132446,0.257684588432312,-0.234383225440979,3.2875027656555176,1.8891544342041016,-0.7156848311424255,false
93333.617143875,0.03690582513809204,0.21462339162826538,-0.17801165580749512,4.15787410736084,2.064908266067505,-0.6727601289749146,false
93333.62710187501,0.010632812976837158,0.197973370552063,-0.13639222085475922,5.057721138000488,2.255394458770752,-0.49294376373291016,false
93333.637060875,0.0232088565826416,0.13502246141433716,-0.019972562789916992,5.776755332946777,2.309373378753662,-0.3273361027240753,false
93333.647019875,0.073830246925354,0.07178539037704468,0.11424529552459717,6.0815629959106445,2.28084135055542,-0.2882523536682129,false
93333.656978875,0.07306841015815735,0.03467059135437012,0.19130152463912964,5.831262588500977,2.264479160308838,-0.3441503345966339,false
93333.666936875,0.0062971413135528564,0.01279979944229126,0.2329903244972229,5.012420177459717,2.292945384979248,-0.4596947729587555,false
93333.676895875,-0.06957477331161499,-0.02082836627960205,0.2678103446960449,3.9559123516082764,2.265244960784912,-0.5326617956161499,false
93333.686854875,-0.0933239758014679,-0.057640016078948975,0.30198997259140015,3.045707941055298,2.2111966609954834,-0.5621907114982605,false
93333.69681387501,-0.06010863184928894,-0.04081505537033081,0.3153577446937561,2.4943490028381348,2.1786255836486816,-0.562528669834137,false
93333.706771875,-0.03758212924003601,0.006117045879364014,0.30854612588882446,2.2306337356567383,2.134441375732422,-0.49062809348106384,false
93333.716730875,-0.0665176510810852,-0.005864500999450684,0.2730022668838501,1.9989572763442993,2.0070602893829346,-0.47264787554740906,false
93333.72668987501,-0.12747609615325928,-0.058662474155426025,0.2067212015390396,1.800126552581787,1.8620210886001587,-0.5071240663528442,false
93333.73664887501,-0.214615136384964,-0.08719098567962646,0.15925021469593048,1.6811058521270752,1.741645336151123,-0.5391199588775635,false
93333.746606875,-0.3087212145328522,-0.08897179365158081,0.10926003754138947,1.5730302333831787,1.6544803380966187,-0.5406590104103088,false
93333.75656587501,-0.3757472038269043,-0.06461364030838013,0.11688120663166046,1.4899650812149048,1.6789171695709229,-0.6168922185897827,false
93333.76652487501,-0.40741103887557983,0.027849316596984863,0.22625359892845154,1.6373286247253418,1.9345792531967163,-0.7022258043289185,false
93333.776483875,-0.4118315875530243,0.11301714181900024,0.40572869777679443,1.61884605884552,2.2020952701568604,-0.6013947129249573,false
93333.78644187501,-0.3583856225013733,0.12474071979522705,0.5643641948699951,1.5585209131240845,2.2828564643859863,-0.5694668889045715,false
93333.796400875,-0.25377780199050903,0.15713393688201904,0.6039420366287231,1.5608625411987305,2.245413064956665,-0.6839203834533691,false
93333.806359875,-0.1876881718635559,0.1909136176109314,0.4982278347015381,1.67120361328125,2.1975247859954834,-0.8259528875350952,false
93333.816318875,-0.1926395297050476,0.2227339744567871,0.3423510193824768,1.789473533630371,2.154437303543091,-0.924777626991272,false
93333.826276875,-0.2426137924194336,0.1948639154434204,0.18410924077033997,1.6150588989257812,2.093981981277466,-1.0111056566238403,false
93333.836235875,-0.28949326276779175,0.11716926097869873,0.07821300625801086,1.1444674730300903,2.028057813644409,-1.0602772235870361,false
93333.846194875,-0.29503676295280457,0.031726717948913574,0.05644577741622925,0.4878896176815033,1.9199550151824951,-1.0877799987792969,false
93333.85615387501,-0.2520773410797119,-0.053524553775787354,0.04421001672744751,-0.14193205535411835,1.809274673461914,-1.061887502670288,false
93333.866111875,-0.17512600123882294,-0.1270148754119873,0.0470333993434906,-0.4594578146934509,1.6522924900054932,-0.9504345059394836,false
93333.876070875,-0.0736723244190216,-0.1429385542869568,0.10084816813468933,-0.22095251083374023,1.5491057634353638,-0.8761664032936096,false
93333.88602987501,-0.01015549898147583,0.02043813467025757,0.1852133870124817,0.4838663637638092,1.6443172693252563,-0.8988259434700012,false
93333.89598887501,-0.047111719846725464,0.23565328121185303,0.2060745358467102,1.2515792846679688,1.8453525304794312,-1.0117802619934082,false
93333.905946875,-0.09853972494602203,0.359870970249176,0.21453890204429626,1.8296312093734741,2.00753116607666,-1.1173814535140991,false
93333.91590587501,-0.09810991585254669,0.3700326085090637,0.22760504484176636,1.9534465074539185,2.100618362426758,-1.0891485214233398,false
93333.92586487501,-0.035440146923065186,0.2510666251182556,0.24553799629211426,1.6928796768188477,2.0254204273223877,-1.0889054536819458,false
93333.935823875,0.059470027685165405,0.08566761016845703,0.21344473958015442,1.093062162399292,1.8786888122558594,-1.0974299907684326,false
93333.94578187501,0.13653597235679626,-0.0602649450302124,0.17848476767539978,0.3209441006183624,1.769023060798645,-1.023516297340393,false
93333.95574087501,0.19933170080184937,-0.1552385687828064,0.16724488139152527,-0.49319568276405334,1.6506290435791016,-0.9196335077285767,false
93333.965699875,0.2471815049648285,-0.1916307806968689,0.15023887157440186,-1.0987316370010376,1.5278937816619873,-0.8514462113380432,false
93333.975658875,0.26691317558288574,-0.19438230991363525,0.10887181758880615,-1.535459041595459,1.4147340059280396,-0.7784909605979919,false
93333.98561687501,0.2638642191886902,-0.2227863073348999,0.057197511196136475,-1.9936444759368896,1.299456238746643,-0.6709128022193909,false
93333.995575875,0.2564908266067505,-0.26983892917633057,0.036833226680755615,-2.4790492057800293,1.1692934036254883,-0.5781157612800598,false
93334.005534875,0.25803709030151367,-0.3084965944290161,0.015878811478614807,-2.850640058517456,1.0012078285217285,-0.510485053062439,false
93334.015493875,0.27739644050598145,-0.31774187088012695,-0.03286617994308472,-2.993560314178467,0.8579934239387512,-0.4265002906322479,false
93334.025451875,0.3048200309276581,-0.27098286151885986,-0.058818280696868896,-2.8256824016571045,0.7677549123764038,-0.3369120955467224,false
93334.035410875,0.32900846004486084,-0.19538336992263794,-0.040258049964904785,-2.4207677841186523,0.7061325907707214,-0.20909401774406433,false
93334.045369875,0.3457803726196289,-0.12732237577438354,-0.0061655789613723755,-1.8449499607086182,0.6404949426651001,-0.12934459745883942,false
93334.05532887501,0.3549623489379883,-0.0819770097732544,-0.053554847836494446,-1.4008930921554565,0.5947844982147217,-0.07197580486536026,false
93334.065286875,0.35200947523117065,-0.1279205083847046,-0.13777655363082886,-1.257490873336792,0.5268075466156006,-0.03513789176940918,false
93334.075245875,0.3504783809185028,-0.230049729347229,-0.20660501718521118,-1.3748241662979126,0.4035003185272217,0.04768688231706619,false
93334.08520487501,0.3696206510066986,-0.35407739877700806,-0.26839977502822876,-1.6227695941925049,0.24517379701137543,0.1872575581073761,false
93334.09516387501,0.42029261589050293,-0.4652784466743469,-0.3204456567764282,-1.8942149877548218,0.039619091898202896,0.34444090723991394,false
93334.105121875,0.48421329259872437,-0.5255314707756042,-0.36515700817108154,-2.0831098556518555,-0.15683244168758392,0.49734416604042053,false
93334.11508087501,0.5202162265777588,-0.5296168327331543,-0.3665004372596741,-2.133268356323242,-0.2845999300479889,0.6802651286125183,false
93334.12503987501,0.4966025948524475,-0.49055635929107666,-0.35137689113616943,-1.9998184442520142,-0.35450366139411926,0.8581448197364807,false
93334.134998875,0.4290619194507599,-0.427249014377594,-0.3480604887008667,-1.7515796422958374,-0.3851263225078583,1.0031712055206299,false
93334.14495687501,0.3633860945701599,-0.38104569911956787,-0.3647642135620117,-1.5153006315231323,-0.44072195887565613,1.1255055665969849,false
93334.154915875,0.32684481143951416,-0.3711772561073303,-0.39577996730804443,-1.355170488357544,-0.5355731844902039,1.2253749370574951,false
93334.164874875,0.32471609115600586,-0.3947892189025879,-0.4459909200668335,-1.3569176197052002,-0.6732825636863708,1.3135647773742676,false
93334.174833875,0.35551711916923523,-0.4419008493423462,-0.490131139755249,-1.5181480646133423,-0.857528030872345,1.417134165763855,false
93334.184791875,0.41001206636428833,-0.4825575351715088,-0.514911413192749,-1.791782259941101,-1.084089756011963,1.5530210733413696,false
93334.194750875,0.4557681381702423,-0.5154156684875488,-0.5283665657043457,-2.093881607055664,-1.3122719526290894,1.6971033811569214,false
93334.204709875,0.4566695988178253,-0.5068528652191162,-0.5235925912857056,-2.2652363777160645,-1.492301344871521,1.832238793373108,false
93334.214668875,0.4003032147884369,-0.441162109375,-0.5057183504104614,-2.2274880409240723,-1.6112072467803955,1.9756114482879639,false
93334.224626875,0.32408401370048523,-0.33905208110809326,-0.4843851327896118,-1.9550997018814087,-1.7301161289215088,2.086063861846924,false
93334.234585875,0.27934908866882324,-0.23694545030593872,-0.49274468421936035,-1.6670045852661133,-1.8933429718017578,2.1634488105773926,false
93334.24454475,0.2712906301021576,-0.19445359706878662,-0.5279303789138794,-1.5668340921401978,-2.0661284923553467,2.279284954071045,false
93334.25450375001,0.297712117433548,-0.22594845294952393,-0.5293928384780884,-1.7067701816558838,-2.235839605331421,2.4041481018066406,false
93334.26446175,0.35976704955101013,-0.2898383140563965,-0.5019932985305786,-2.003232002258301,-2.413382053375244,2.5196070671081543,false
93334.27442075,0.44412532448768616,-0.3409072756767273,-0.44671201705932617,-2.3348710536956787,-2.6342849731445312,2.613175868988037,false
93334.28437975001,0.5223660469055176,-0.34497201442718506,-0.4034743309020996,-2.6410436630249023,-2.8973512649536133,2.6741061210632324,false
93334.29433875001,0.5580430626869202,-0.31502896547317505,-0.3853766620159149,-2.8409526348114014,-3.1415297985076904,2.737403631210327,false
93334.30429675001,0.5524313449859619,-0.24178659915924072,-0.34100282192230225,-2.8346667289733887,-3.3278982639312744,2.7630844116210938,false
93334.31425575001,0.515278697013855,-0.13402652740478516,-0.31238046288490295,-2.5960302352905273,-3.454819679260254,2.7777175903320312,false
93334.32421475,0.46203505992889404,-0.03315073251724243,-0.31635916233062744,-2.2693822383880615,-3.553215265274048,2.7858943939208984,false
93334.33417375,0.4353053569793701,0.028119802474975586,-0.33638453483581543,-2.018826484680176,-3.6409945487976074,2.8100736141204834,false
93334.34413175001,0.44351911544799805,0.034541189670562744,-0.3327115774154663,-1.8930819034576416,-3.7387590408325195,2.8591372966766357,false
93334.35409075,0.4835917353630066,0.013169944286346436,-0.30125701427459717,-1.889577031135559,-3.8793272972106934,2.86972975730896,false
93334.36404975,0.5321804285049438,-0.006283462047576904,-0.2552304267883301,-1.9216798543930054,-4.056882858276367,2.847640037536621,false
93334.37400875,0.565430760383606,0.012859225273132324,-0.20209179818630219,-1.8952747583389282,-4.214059829711914,2.848853349685669,false
93334.38396675,0.5819778442382812,0.04986453056335449,-0.1713404655456543,-1.8531787395477295,-4.382618427276611,2.7803544998168945,false
93334.39392575,0.5829132795333862,0.10716009140014648,-0.19939517974853516,-1.8700323104858398,-4.474427223205566,2.698464870452881,false
93334.40388475,0.5863649249076843,0.17444825172424316,-0.21886801719665527,-1.9405949115753174,-4.530711650848389,2.629512310028076,false
93334.41384275,0.6229397654533386,0.23068451881408691,-0.172652006149292,-2.0227298736572266,-4.65127420425415,2.4527251720428467,false
93334.42380175,0.6962243914604187,0.3080669641494751,-0.14325106143951416,-2.1216580867767334,-4.793001174926758,2.210247278213501,false
93334.43376075,0.7551665306091309,0.40188276767730713,-0.10968559980392456,-2.336698532104492,-4.895734786987305,1.9700560569763184,false
93334.44371975001,0.7165124416351318,0.42396610975265503,-0.10030585527420044,-2.615952491760254,-4.9553937911987305,1.7198083400726318,false
93334.45367775,0.6307164430618286,0.3996582627296448,-0.11391240358352661,-2.887765645980835,-5.015949726104736,1.47805655002594,false
93334.46363675,0.6035984754562378,0.4205150604248047,-0.0975378155708313,-3.1511623859405518,-5.0382890701293945,1.2316575050354004,false
93334.47359575001,0.6395192742347717,0.4965825378894806,-0.034239158034324646,-3.50807785987854,-5.045866012573242,0.9278112053871155,false
93334.48355475001,0.6558405756950378,0.5713496804237366,0.06488198041915894,-3.8611671924591064,-4.9836273193359375,0.513077437877655,false
93334.49351275,0.6604651212692261,0.673314094543457,0.1860135793685913,-3.938126564025879,-4.814448356628418,0.034623678773641586,false
93334.50347175001,0.5883404016494751,0.8012174367904663,0.24068409204483032,-3.6728360652923584,-4.568271160125732,-0.4600968360900879,false
93334.51343075001,0.47217339277267456,0.9248855113983154,0.20954610407352448,-3.249532699584961,-4.227264404296875,-0.9136041402816772,true
93334.52338975,0.41321223974227905,0.9888110756874084,0.18794095516204834,-3.1398274898529053,-3.9456701278686523,-1.3468424081802368,false
93334.53334775001,0.45226192474365234,0.9654818773269653,0.2515963315963745,-3.347064733505249,-3.7499959468841553,-1.7627291679382324,false
93334.54330675001,0.5642660856246948,0.9259803891181946,0.4003031551837921,-3.6319310665130615,-3.499356985092163,-2.2031126022338867,false
93334.55326575,0.5642142295837402,0.9118067026138306,0.5765260457992554,-3.5332491397857666,-3.058340072631836,-2.670959949493408,false
93334.56322475,0.3954229950904846,0.9857855439186096,0.7182753086090088,-3.049160957336426,-2.4864304065704346,-3.2085816860198975,false
93334.57318275,0.26889705657958984,1.128288745880127,0.750626802444458,-2.53367018699646,-2.008023262023926,-3.637805700302124,false
93334.58314175,0.272197425365448,1.1053829193115234,0.8037286996841431,-2.1922926902770996,-1.5468401908874512,-4.010467052459717,false
93334.59310075,0.38037335872650146,0.9298796057701111,0.8829175233840942,-2.2393250465393066,-1.0566951036453247,-4.303234577178955,false
93334.60305975,0.45205140113830566,0.7423439621925354,1.0282899141311646,-2.4039387702941895,-0.5791465640068054,-4.614584445953369,false
93334.61301775,0.5162203907966614,0.6267739534378052,1.181060552597046,-2.628876209259033,0.03410109132528305,-4.93334436416626,false
93334.62297675,0.5204517245292664,0.5636639595031738,1.323543906211853,-2.545827865600586,0.6491986513137817,-5.193160533905029,false
93334.63293575,0.532828688621521,0.4995884895324707,1.4193668365478516,-2.077749252319336,1.197363257408142,-5.386570453643799,false
93334.64289475001,0.6153549551963806,0.40285128355026245,1.4291682243347168,-1.376868724822998,1.7481555938720703,-5.541650772094727,false
93334.65285275,0.6687713265419006,0.26550233364105225,1.4087214469909668,-0.8161755800247192,2.2324507236480713,-5.715514183044434,false
93334.66281175001,0.7042679786682129,0.11887228488922119,1.3740488290786743,-0.22624355554580688,2.5943901538848877,-5.671600341796875,false
93334.67277075001,0.7733780145645142,-0.06030362844467163,1.4017682075500488,0.3899984061717987,2.928758144378662,-5.741302490234375,false
93334.68272975,0.8434459567070007,-0.1887885332107544,1.427804946899414,0.993285596370697,3.267282485961914,-5.720839977264404,false
93334.69268775001,0.8346272706985474,-0.2321772575378418,1.4255006313323975,1.5488792657852173,3.4534666538238525,-5.76394510269165,false
93334.70264675001,0.8538393974304199,-0.2884829640388489,1.3844956159591675,2.0450453758239746,3.5592451095581055,-5.824709415435791,false
93334.71260575,0.9152898788452148,-0.2805176377296448,1.3057085275650024,2.227174997329712,3.5480382442474365,-5.819875240325928,false
93334.72256475,0.9828230738639832,-0.3362317681312561,1.2158541679382324,2.007580280303955,3.4811792373657227,-5.749547958374023,false
93334.73252275001,1.030208706855774,-0.4613933563232422,1.1567155122756958,1.3839136362075806,3.414921283721924,-5.559567451477051,false
93334.74248175,1.0342694520950317,-0.5996188521385193,1.1250842809677124,0.8863999247550964,3.3255724906921387,-5.240723133087158,false
93334.75244075,1.0236564874649048,-0.7204949855804443,1.0013360977172852,0.6045358777046204,3.2301104068756104,-4.860669136047363,false
93334.76239975,1.016371488571167,-0.7930850386619568,0.8332369923591614,0.6265525221824646,3.1941676139831543,-4.506833553314209,false
93334.77235775,0.9723882675170898,-0.7872377038002014,0.7371028065681458,0.7140886187553406,3.2074406147003174,-4.186020851135254,false
93334.78231675,0.9105098843574524,-0.7936708331108093,0.6650179624557495,0.8411064743995667,3.27597975730896,-3.9264421463012695,false
93334.79227575,0.8487250208854675,-0.7856237292289734,0.6473604440689087,0.9068715572357178,3.418572187423706,-3.612117290496826,false
93334.80223375,0.7933598756790161,-0.7755988240242004,0.680397093296051,1.034403920173645,3.600890636444092,-3.32004451751709,false
93334.81219275,0.7799946069717407,-0.7281695008277893,0.6958731412887573,1.1496150493621826,3.8217434883117676,-3.0517752170562744,false
93334.82215175,0.7920699119567871,-0.6737300157546997,0.7341241836547852,1.0949324369430542,3.999706268310547,-2.7997817993164062,false
93334.83211075001,0.813062310218811,-0.6562638878822327,0.7758694887161255,0.7467865347862244,4.145450592041016,-2.5249295234680176,false
93334.84206875,0.838958740234375,-0.6760901808738708,0.7998148798942566,0.10362623631954193,4.234107971191406,-2.179945230484009,false
93334.85202775,0.8709555268287659,-0.7439650297164917,0.8284429311752319,-0.7530950307846069,4.3285956382751465,-1.6535046100616455,false
93334.86198675001,0.907272219657898,-0.8440498113632202,0.9301540851593018,-1.4711687564849854,4.437698841094971,-0.9843648076057434,false
93334.87194575001,0.9657464027404785,-0.8482384085655212,1.0000648498535156,-1.666353464126587,4.563468933105469,-0.3434290885925293,false
93334.88190375,1.0435125827789307,-0.6918312311172485,0.9184629917144775,-1.345271110534668,4.69813871383667,0.1478394716978073,false
93334.89186275001,1.1036005020141602,-0.4711306095123291,0.7511724233627319,-0.7356377243995667,4.743161678314209,0.44860389828681946,false
93334.90182175001,1.1316460371017456,-0.3376588821411133,0.5252817869186401,-0.2177298218011856,4.661509037017822,0.647404134273529,false
93334.91178075,1.1263339519500732,-0.378423273563385,0.26446476578712463,-0.2733183801174164,4.528695583343506,0.9081349968910217,false
93334.92173875001,1.0968295335769653,-0.5857511758804321,0.04001057147979736,-0.8277294039726257,4.461715221405029,1.2751750946044922,false
93334.93169775,1.0717397928237915,-0.8132563233375549,-0.11633697152137756,-1.5260462760925293,4.41161584854126,1.6585111618041992,false
93334.94165675,1.0845361948013306,-0.9443631768226624,-0.26064327359199524,-2.045477867126465,4.326813697814941,1.9590879678726196,false
93334.95161575,1.0998488664627075,-1.001636266708374,-0.27112939953804016,-2.055288076400757,4.416153907775879,2.383470058441162,false
93334.96157375,1.0528957843780518,-1.0159118175506592,0.008368968963623047,-1.4746973514556885,4.548080921173096,2.911754846572876,false
93334.97153275,0.9818353056907654,-0.8367941975593567,0.10088497400283813,-0.24694576859474182,4.403972148895264,3.081035614013672,false
93334.98149175,0.9457363486289978,-0.42547011375427246,-0.07382673025131226,1.556788444519043,4.082925796508789,2.880126476287842,false
93334.99145075,0.9194318056106567,-0.0181618332862854,-0.35377711057662964,3.672478437423706,3.834988594055176,2.6319870948791504,false
93335.00140875,0.9176117777824402,0.14557254314422607,-0.7386907339096069,4.637533187866211,3.543611764907837,2.3632335662841797,false
93335.01136775,0.9442954063415527,-0.06434142589569092,-1.0390032529830933,3.745328664779663,3.1412949562072754,2.0501317977905273,false
93335.02132675001,0.9109095931053162,-0.5202697515487671,-1.0158610343933105,1.4754393100738525,2.8150293827056885,1.893566370010376,false
93335.03128575001,0.8189201951026917,-0.9951252937316895,-0.849183976650238,-0.7486704587936401,2.559206962585449,1.9151158332824707,false
93335.04124375,0.7173507213592529,-1.267582654953003,-0.7483498454093933,-1.8574285507202148,2.120084047317505,1.9745385646820068,false
93335.05120275001,0.6233179569244385,-1.2160792350769043,-0.898553192615509,-1.9038110971450806,1.5406923294067383,2.1393353939056396,false
93335.06116175001,0.554824948310852,-0.8801994919776917,-1.1074581146240234,-1.2433279752731323,1.055648922920227,2.2901759147644043,false
93335.07112075,0.48221367597579956,-0.5088670253753662,-1.2164665460586548,-0.4504558742046356,0.7596890330314636,2.3094563484191895,false
93335.08107875001,0.4038337469100952,-0.2779146432876587,-1.2315140962600708,0.02406243607401848,0.5619738101959229,2.238882541656494,false
93335.09103775001,0.3683774769306183,-0.13549470901489258,-1.1723026037216187,0.22231173515319824,0.2989593744277954,2.0710020065307617,false
93335.10099675,0.38537222146987915,-0.072853684425354,-1.1960846185684204,0.12464083731174469,-0.030503999441862106,2.0070486068725586,false
93335.11095475001,0.41870275139808655,-0.10929453372955322,-1.312265396118164,-0.3029416501522064,-0.30823442339897156,2.128891944885254,false
93335.12091375001,0.4602849781513214,-0.1546022891998291,-1.3568599224090576,-0.850986659526825,-0.5032318830490112,2.346670389175415,false
93335.13087275,0.5638850927352905,-0.12318193912506104,-1.2895771265029907,-1.357287883758545,-0.7400792837142944,2.5732736587524414,false
93335.14083175,0.7560235261917114,-0.021761596202850342,-1.2233340740203857,-1.897401213645935,-0.9671736359596252,2.9500179290771484,false
93335.15078975001,1.0089995861053467,0.17473739385604858,-1.0858204364776611,-2.323679208755493,-1.132467269897461,3.3790900707244873,false
93335.16074875,1.278127670288086,0.4017243981361389,-0.948022723197937,-2.56435227394104,-1.3529247045516968,3.6713650226593018,false
93335.17070775,1.5031049251556396,0.569771409034729,-0.8100216388702393,-2.6017706394195557,-1.7297877073287964,3.9796841144561768,false
93335.18066675,1.6989614963531494,0.767123281955719,-0.5733726024627686,-2.2491447925567627,-2.2274208068847656,4.357570171356201,false
93335.19062475,1.8897297382354736,1.03961181640625,-0.49363037943840027,-1.5128777027130127,-2.3981926441192627,5.032475471496582,true
93335.20058375,2.0751540660858154,1.3023343086242676,-0.5168517827987671,-1.0741695165634155,-2.509072780609131,5.8332200050354,false
93335.21054275,2.1921231746673584,1.422585368156433,-0.48026636242866516,-0.8461418747901917,-2.786287784576416,6.100073337554932,false
93335.22050175001,2.0926668643951416,1.2712152004241943,-0.42995044589042664,-1.945192813873291,-2.7890207767486572,6.004555702209473,false
93335.23045975,1.769336462020874,1.0041629076004028,-0.31321045756340027,-3.8342478275299072,-2.2522153854370117,5.643688678741455,false
93335.24041875,1.4345983266830444,0.8242091536521912,-0.0636054277420044,-5.145689487457275,-2.4074056148529053,5.277337074279785,false
93335.25037791667,1.2145909070968628,0.7887195944786072,0.06910926103591919,-5.349287509918213,-3.2351489067077637,5.059930324554443,false
93335.26033691668,1.0826175212860107,0.9550707936286926,0.06070062518119812,-4.723149299621582,-4.155717849731445,4.745221138000488,false
93335.27029491667,0.8232185244560242,1.1034724712371826,0.12741804122924805,-3.9142796993255615,-4.561767101287842,4.180938720703125,false
93335.28025391667,0.31294912099838257,1.133134126663208,0.23869013786315918,-3.1158881187438965,-4.3258819580078125,3.4139389991760254,false
93335.29021291668,-0.37162894010543823,1.0319112539291382,0.3282603621482849,-2.915459156036377,-3.8144748210906982,2.895569086074829,false
93335.30017191668,-1.0353662967681885,0.8255714774131775,0.516748309135437,-3.6069440841674805,-3.3827006816864014,2.6648964881896973,false
93335.31012991667,-1.4441325664520264,0.7076572775840759,0.8232681751251221,-4.305928707122803,-3.0381855964660645,2.1706278324127197,false
93335.32008891668,-1.4453990459442139,0.6850550770759583,0.8709155321121216,-4.686130046844482,-2.8076066970825195,1.4056347608566284,false
93335.33004791668,-1.058213710784912,0.6567262411117554,0.7850773334503174,-4.92063570022583,-2.846843719482422,0.602149248123169,false
93335.34000691667,-0.6527523994445801,0.6561759114265442,0.7648292779922485,-4.945074081420898,-2.944329023361206,0.03897453099489212,false
93335.34996491668,-0.5857077836990356,0.5504329204559326,0.7176770567893982,-4.996834754943848,-2.7717933654785156,-0.1556064337491989,false
93335.35992391667,-0.7836010456085205,0.31887590885162354,0.8694196343421936,-4.67828893661499,-2.3940093517303467,-0.4295050799846649,false
93335.36988291667,-0.9863556623458862,0.22812408208847046,1.0044220685958862,-3.6654348373413086,-1.8113951683044434,-0.7101677060127258,false
93335.37984191667,-1.0077393054962158,0.3149474859237671,1.0367847681045532,-2.7327582836151123,-1.106397032737732,-1.2060803174972534,false
93335.38979991667,-0.9067676663398743,0.3501151204109192,0.9583970308303833,-2.258941173553467,-0.49233999848365784,-1.6226211786270142,false
93335.39975891667,-0.8073160648345947,0.19372838735580444,0.95949387550354,-1.8890070915222168,-0.16282682120800018,-1.843847632408142,false
93335.40971791667,-0.5528420805931091,-0.021073579788208008,1.026184320449829,-1.2810438871383667,0.23887188732624054,-2.236947774887085,false
93335.41967691667,-0.327964723110199,-0.04299581050872803,1.0254809856414795,-0.23323866724967957,0.7643324732780457,-2.5810887813568115,false
93335.42963491667,-0.4125385880470276,-0.04597043991088867,1.0327003002166748,0.5551410913467407,1.1749883890151978,-2.7716195583343506,false
93335.43959391667,-0.5364871025085449,-0.25374460220336914,1.1994551420211792,0.9923211336135864,1.5896306037902832,-3.130378246307373,false
93335.44955291667,-0.5495737195014954,-0.280953049659729,1.3383318185806274,1.2318830490112305,1.9237209558486938,-3.367828845977783,false
93335.45951091667,-0.5315441489219666,-0.2966534495353699,1.363924264907837,1.4500277042388916,2.121568202972412,-3.462010383605957,false
93335.46946991667,-0.4344538450241089,-0.46608924865722656,1.2644850015640259,1.9032621383666992,2.3136632442474365,-3.542231321334839,false
93335.47942891667,-0.33699673414230347,-0.5509806871414185,1.1533368825912476,2.0739312171936035,2.6494970321655273,-3.877870559692383,false
93335.48938791668,-0.3523736000061035,-0.5071324110031128,1.0937997102737427,2.159661293029785,2.9580178260803223,-3.816603183746338,false
93335.49934591667,-0.3695072531700134,-0.6246687769889832,1.0613117218017578,2.294947624206543,2.972856283187866,-3.7428154945373535,false
93335.50930491668,-0.18547111749649048,-0.8274226784706116,0.9954431056976318,2.2342238426208496,2.9390769004821777,-3.842974901199341,false
93335.51926391668,-0.03681817650794983,-0.8134819269180298,0.9752122163772583,2.176752805709839,2.8983542919158936,-3.84871506690979,false
93335.52922291667,0.019005775451660156,-0.7466988563537598,0.9485726356506348,2.021446704864502,2.8660621643066406,-3.80639386177063,false
93335.53918091668,0.05341598391532898,-0.7038742303848267,0.8981099128723145,1.520214319229126,2.9479758739471436,-3.639915704727173,false
93335.54913991668,0.023010581731796265,-0.7216575741767883,0.7706577777862549,1.1478854417800903,2.9567251205444336,-3.1261403560638428,false
93335.55909891667,0.0446782112121582,-0.8057113885879517,0.5015316009521484,1.0086349248886108,2.9137802124023438,-2.6022980213165283,false
93335.56905791667,0.20963966846466064,-0.7697026133537292,0.2257806956768036,0.45828118920326233,2.87573504447937,-2.2578201293945312,false
93335.57901591668,0.3676644563674927,-0.6562922596931458,-0.07913824915885925,-0.08869294077157974,2.756406307220459,-1.8526480197906494,false
93335.58897491667,0.5479102730751038,-0.6027083992958069,-0.36309120059013367,-0.17680102586746216,2.544461727142334,-1.1661640405654907,false
93335.59893391667,0.8225111961364746,-0.5606886744499207,-0.4824461042881012,0.29690980911254883,2.319734573364258,-0.36212342977523804,false
93335.60889291667,1.077345848083496,-0.4332451820373535,-0.7015749216079712,1.2742937803268433,2.1570966243743896,0.6959909796714783,false
93335.61885091667,1.3103834390640259,-0.18201035261154175,-0.8601939678192139,2.3454997539520264,1.947020173072815,1.990864634513855,false
93335.62880991667,1.602543830871582,0.2334793210029602,-1.1340190172195435,3.7764666080474854,1.7263453006744385,3.0356388092041016,false
93335.63876891667,1.9160840511322021,0.5592514872550964,-1.3944876194000244,3.9008049964904785,1.1261892318725586,4.141485214233398,false
93335.64872791668,2.185009002685547,0.6142911314964294,-1.268929362297058,3.3587629795074463,1.289650559425354,4.658530235290527,false
93335.65868591667,2.4184303283691406,0.5422646403312683,-0.9583946466445923,1.555783987045288,1.4085702896118164,4.12290096282959,false
93335.66864491667,2.5447845458984375,0.13682705163955688,-1.1155246496200562,-1.243574619293213,0.8865651488304138,3.8364992141723633,false
93335.67860391668,2.5468127727508545,-0.3688303828239441,-1.4226574897766113,-4.404182434082031,-0.34330523014068604,4.431491374969482,false
93335.68856191667,2.5738625526428223,-0.4627951383590698,-1.6605584621429443,-6.440596103668213,-1.5788023471832275,5.406716346740723,false
93335.69852091667,2.355912208557129,0.20642441511154175,-1.6335468292236328,-6.075945854187012,-2.582859754562378,5.4610466957092285,false
93335.70847991668,1.744640588760376,0.9097262024879456,-1.597705602645874,-4.611777305603027,-3.69309401512146,4.723902225494385,true
93335.71843891668,0.9996522665023804,1.072548508644104,-1.677785873413086,-2.912531614303589,-4.398204326629639,3.846876859664917,false
93335.72839691667,0.2516341805458069,1.0967121124267578,-1.279244303703308,-2.054692268371582,-4.2849860191345215,3.901691198348999,false
93335.73835591668,-0.4329526424407959,0.9899612069129944,-0.5403515696525574,-1.5696457624435425,-3.8558642864227295,4.062366485595703,false
93335.74831491667,-0.9330883622169495,0.8887211680412292,-0.18760666251182556,-1.3668183088302612,-3.465632200241089,3.513784408569336,false
93335.75827391667,-1.1528241634368896,0.9904193878173828,-0.11220520734786987,-1.0290507078170776,-3.229888439178467,2.647359848022461,false
93335.76823191668,-1.007326602935791,1.1501141786575317,0.09904900193214417,-0.9150683283805847,-3.2374932765960693,2.055320978164673,false
93335.77819091667,-0.7053908109664917,1.0878138542175293,0.3520109951496124,-1.1875813007354736,-3.2908027172088623,1.617919683456421,false
93335.78814991667,-0.5281901359558105,0.8397706747055054,0.47000357508659363,-2.0600690841674805,-3.229872941970825,1.246732234954834,false
93335.79810891667,-0.5058934688568115,0.5515316724777222,0.706024169921875,-2.7722644805908203,-3.0060267448425293,0.8076075911521912,false
93335.80806691667,-0.5364789366722107,0.4808081388473511,1.0646060705184937,-2.356285333633423,-2.518644094467163,0.1670425832271576,false
93335.81802591667,-0.6455488801002502,0.5688629746437073,1.1108908653259277,-1.155907392501831,-1.902735710144043,-0.4797998070716858,false
93335.82798491667,-0.797563374042511,0.6342045664787292,1.0345839262008667,-0.2003001570701599,-1.4079235792160034,-0.9532772302627563,false
93335.83794391667,-0.8599589467048645,0.5525580048561096,1.0892748832702637,0.17186754941940308,-1.1297712326049805,-1.2034095525741577,false
93335.84790191667,-0.7634825110435486,0.3089548349380493,1.3216791152954102,-0.14067845046520233,-0.9105468988418579,-1.4153571128845215,false
93335.85786091667,-0.6795413494110107,0.05458986759185791,1.5801496505737305,-0.4683316648006439,-0.41257572174072266,-1.7140487432479858,false
93335.86781991668,-0.7433918714523315,-0.02498871088027954,1.7464101314544678,-0.6445437073707581,0.1612372100353241,-2.027024745941162,false
93335.87777891668,-0.8458992838859558,-0.025641918182373047,1.728227972984314,-0.44095757603645325,0.7185398936271667,-2.435109853744507,false
93335.88773691667,-0.8249978423118591,-0.03453493118286133,1.516723394393921,-0.6371427178382874,1.089989423751831,-2.527834892272949,false
93335.89769591668,-0.7109712958335876,-0.22355705499649048,1.5014941692352295,-1.0971518754959106,1.295445442199707,-2.6944003105163574,false
93335.90765491668,-0.5621215105056763,-0.343883216381073,1.5147960186004639,-0.7720620036125183,1.597767949104309,-2.940739631652832,false
93335.91761391667,-0.4782700538635254,-0.2589108347892761,1.3648614883422852,0.02885865606367588,2.0133562088012695,-3.12690806388855,false
93335.92757191668,-0.5102657079696655,-0.30608534812927246,1.2145706415176392,0.4611680507659912,2.336782455444336,-3.0891191959381104,false
93335.93753091668,-0.512156069278717,-0.5445377230644226,1.134708046913147,0.4242028295993805,2.64229416847229,-3.3010923862457275,false
93335.94748991667,-0.4060400724411011,-0.6271764636039734,1.0641840696334839,0.634088397026062,2.6111860275268555,-3.049133539199829,false
93335.95744791668,-0.23334908485412598,-0.7733182311058044,1.0082190036773682,0.7706278562545776,2.527513265609741,-3.1472511291503906,false
93335.96740691668,-0.021164119243621826,-0.7739323973655701,0.9210580587387085,0.09627171605825424,3.114011526107788,-3.672293186187744,false
93335.97736591667,-0.1193731427192688,-0.5268799662590027,0.9751825332641602,-0.33313480019569397,3.157705068588257,-3.0936286449432373,false
93335.98732491667,-0.21196433901786804,-0.7656047344207764,0.7585891485214233,0.43172502517700195,2.7764036655426025,-2.529677152633667,false
93335.99728291667,0.1901102364063263,-0.9168210625648499,0.49557292461395264,1.0158281326293945,2.9688665866851807,-2.607492446899414,false
93336.00724191667,0.29433175921440125,-0.47124141454696655,0.4702831506729126,1.4741159677505493,3.3987419605255127,-2.5517680644989014,false
93336.01720091667,0.1885453462600708,-0.18144291639328003,0.2221347987651825,1.7727442979812622,3.395465135574341,-2.300062417984009,false
93336.02715991667,0.3784334659576416,-0.1198224425315857,-0.0047227442264556885,1.8860317468643188,3.301745653152466,-1.9201419353485107,false
93336.03711791667,0.6500341892242432,-0.1612798571586609,-0.10295674204826355,1.0700961351394653,3.3878016471862793,-1.2137740850448608,false
93336.04707691667,0.8602094650268555,-0.22871273756027222,-0.07640710473060608,0.625786542892456,3.4281766414642334,-0.3716382086277008,false
93336.05703591667,1.1239006519317627,-0.04689645767211914,-0.4353153109550476,1.3860020637512207,3.426424980163574,0.6553294658660889,false
93336.06699491668,1.6020780801773071,0.1340339183807373,-0.6537110209465027,2.1205098628997803,2.840266227722168,1.4511319398880005,false
93336.07695291667,2.166567802429199,0.41874969005584717,-0.8849563598632812,2.96343994140625,1.920128583908081,1.805187463760376,false
93336.08691191667,2.591550827026367,0.6998687386512756,-1.1665486097335815,3.130764961242676,1.3730758428573608,2.1972975730895996,false
93336.09687091668,2.669924259185791,0.5847696661949158,-1.5331913232803345,1.713760495185852,1.0875910520553589,2.6931445598602295,false
93336.10682991667,2.38556170463562,0.24788588285446167,-1.7779638767242432,-0.3926435112953186,0.7530582547187805,3.2633254528045654,false
93336.11678791668,2.138669490814209,0.016050994396209717,-1.869028091430664,-2.068391799926758,0.19502612948417664,3.8418619632720947,false
93336.12674691668,2.143796443939209,-0.12298566102981567,-1.9214155673980713,-2.6914634704589844,-0.42874675989151,4.341437339782715,false
93336.13670591667,2.093977451324463,-0.10295891761779785,-1.5907317399978638,-2.879340887069702,-1.1021454334259033,4.835756778717041,false
93336.14666491667,1.842240571975708,0.16738992929458618,-1.3317680358886719,-2.3347318172454834,-2.036937952041626,4.8508148193359375,false
93336.15662291668,1.501070261001587,0.5812118649482727,-1.3880572319030762,-1.491434097290039,-3.066812038421631,4.302870273590088,false
93336.16658191667,1.0310792922973633,0.9214039444923401,-1.3737263679504395,-1.0429284572601318,-3.7723114490509033,3.4262731075286865,true
93336.17654091667,0.42295193672180176,1.1210358142852783,-1.240929365158081,-1.3134419918060303,-3.769351005554199,2.7064521312713623,false
93336.18649891668,-0.22732239961624146,1.0693116188049316,-0.9509402513504028,-1.8753501176834106,-3.3080904483795166,2.469628095626831,false
93336.19645791667,-0.792877733707428,0.7828637957572937,-0.571584939956665,-2.1193606853485107,-3.1138508319854736,2.4324514865875244,false
93336.20641691667,-1.0835089683532715,0.5122106075286865,-0.33031636476516724,-1.7875221967697144,-3.167407512664795,2.2302122116088867,false
93336.21637591667,-1.0153939723968506,0.470747709274292,-0.12061455845832825,-1.4261457920074463,-3.1331655979156494,1.7584319114685059,false
93336.22633391667,-0.831680417060852,0.5282557010650635,0.16586485505104065,-1.2175211906433105,-3.0178027153015137,1.1499557495117188,false
93336.23629291667,-0.740553081035614,0.5559717416763306,0.38013097643852234,-1.1623146533966064,-2.7957499027252197,0.6338789463043213,false
93336.246252375,-0.7114327549934387,0.48964351415634155,0.5572590827941895,-1.544430136680603,-2.50628399848938,0.10095639526844025,false
93336.256211375,-0.7113826870918274,0.4820319414138794,0.825996994972229,-1.8144313097000122,-2.2958805561065674,-0.3915257453918457,false
93336.26616937501,-0.7338503003120422,0.48005616664886475,0.9338294863700867,-1.8130487203598022,-2.0946860313415527,-0.6355683207511902,false
93336.276128375,-0.690209150314331,0.37126439809799194,0.9935070276260376,-1.6131010055541992,-1.702046275138855,-0.9602198600769043,false
93336.286087375,-0.6546895503997803,0.246961772441864,1.062864065170288,-1.3593255281448364,-1.3243311643600464,-1.2613627910614014,false
93336.296046375,-0.685590922832489,0.11648637056350708,1.1237461566925049,-0.7745097875595093,-1.0561742782592773,-1.4870343208312988,false
93336.306004375,-0.6566572189331055,0.05888688564300537,1.1423271894454956,-0.08146478980779648,-0.7019397616386414,-1.7053985595703125,false
93336.315963375,-0.6427611708641052,0.013608872890472412,1.2786413431167603,0.3555346429347992,-0.21993637084960938,-1.8567063808441162,false
93336.325922375,-0.7311172485351562,-0.1740913987159729,1.5587756633758545,0.0015212397556751966,-0.061352524906396866,-2.061282157897949,false
93336.33588137501,-0.7320039868354797,-0.28050321340560913,1.669884204864502,-0.05062505230307579,0.32633528113365173,-2.5239901542663574,false
93336.345839375,-0.6582537889480591,-0.15100634098052979,1.5301162004470825,0.3070208430290222,0.6152614951133728,-2.296384811401367,false
93336.355798375,-0.6482190489768982,-0.42963969707489014,1.612899661064148,0.498209685087204,0.7132242918014526,-2.3449254035949707,false
93336.36575737501,-0.4787922501564026,-0.6135130524635315,1.3845707178115845,0.8615345358848572,1.2864861488342285,-2.8601722717285156,false
93336.37571637501,-0.4215462803840637,-0.22688275575637817,1.2134366035461426,1.0094901323318481,1.8427541255950928,-2.9434144496917725,false
93336.38567437501,-0.5011219382286072,-0.31547635793685913,1.2999521493911743,0.2630324065685272,2.0317766666412354,-2.9276280403137207,false
93336.39563337501,-0.40543633699417114,-0.6839017271995544,1.325427532196045,-0.415127694606781,2.159135580062866,-3.01767635345459,false
93336.40559237501,-0.24863505363464355,-0.6797312498092651,1.2331132888793945,-0.8209127187728882,2.178732395172119,-3.248464345932007,false
93336.41555037501,-0.14813202619552612,-0.6167119741439819,1.062909483909607,-0.6075602173805237,2.380567789077759,-3.167050361633301,false
93336.42550937501,-0.16246312856674194,-0.5883510708808899,0.8926099538803101,-0.4770667254924774,2.76285719871521,-3.291372060775757,false
93336.435468375,-0.16035935282707214,-0.5118706822395325,0.8053187131881714,0.2459130734205246,3.0095536708831787,-2.9484751224517822,false
93336.445427375,-0.09010651707649231,-0.4625086188316345,0.5347716808319092,0.9665424227714539,3.091824769973755,-2.787370204925537,false
93336.45538537501,0.1949538290500641,-0.4806474447250366,0.3111114799976349,1.2551909685134888,3.2649455070495605,-2.685343027114868,false
93336.465344375,0.33527871966362,-0.2504895329475403,0.17359280586242676,1.8343020677566528,3.3879566192626953,-2.4606428146362305,false
93336.475303375,0.5050774812698364,-0.20251977443695068,-0.2107837200164795,2.1057393550872803,3.396949052810669,-2.131762981414795,false
93336.485262375,0.7673904895782471,-0.17341482639312744,-0.2932470142841339,2.281203031539917,3.4723763465881348,-1.6972947120666504,false
93336.495220375,0.9854898452758789,-0.08760511875152588,-0.5149211883544922,2.5182039737701416,3.4290852546691895,-0.9737234711647034,false
93336.505179375,1.298025369644165,0.01599717140197754,-0.7610528469085693,3.08370041847229,3.129276990890503,0.028255026787519455,false
93336.515138375,1.7181622982025146,0.1266811490058899,-1.021065592765808,3.44213604927063,2.519063949584961,1.0386404991149902,false
93336.52509737501,2.1439223289489746,0.16784054040908813,-1.238207459449768,3.1337854862213135,1.9228066205978394,1.7757160663604736,false
93336.535055375,2.3664114475250244,0.1533716917037964,-1.2306183576583862,2.1387529373168945,1.7468470335006714,2.5374062061309814,false
93336.545014375,2.292656898498535,0.00875866413116455,-1.1101760864257812,0.8118579983711243,1.463581919670105,3.0884289741516113,false
93336.55497337501,2.1311845779418945,-0.19065672159194946,-1.4280084371566772,-0.7371116280555725,0.7255385518074036,3.43277907371521,false
93336.56493237501,2.117065906524658,-0.2754214406013489,-1.7736760377883911,-1.9545419216156006,-0.06811143457889557,3.8900113105773926,false
93336.574890375,2.172436475753784,-0.1799136996269226,-1.8553466796875,-2.6240551471710205,-0.8175872564315796,4.431232929229736,false
93336.58484937501,2.064757823944092,0.006965160369873047,-1.7871224880218506,-2.638115167617798,-1.518432378768921,4.7701921463012695,false
93336.59480837501,1.7415120601654053,0.3572813868522644,-1.7180901765823364,-2.1895058155059814,-2.1211977005004883,4.786411762237549,false
93336.604767375,1.2964389324188232,0.6546191573143005,-1.6128370761871338,-1.494085669517517,-2.7552173137664795,4.334007740020752,false
93336.61472537501,0.7928918600082397,0.7524455785751343,-1.4117851257324219,-1.00058114528656,-3.0634121894836426,3.9171090126037598,false
93336.62468437501,0.23710614442825317,0.6480914354324341,-0.8526474833488464,-1.1069153547286987,-3.0584278106689453,4.0180511474609375,false
93336.634643375,-0.24327301979064941,0.5369122624397278,-0.3143922984600067,-1.1781845092773438,-3.1740427017211914,4.055464267730713,false
93336.64460137501,-0.6165284514427185,0.5559017062187195,-0.29546403884887695,-1.2076159715652466,-3.2590725421905518,3.5825462341308594,false
93336.65456037501,-0.8286361694335938,0.7488250136375427,-0.2919086515903473,-0.9974856972694397,-2.9683327674865723,2.9157965183258057,false
93336.664519375,-0.8814707398414612,0.9655667543411255,-0.005804955959320068,-0.8426711559295654,-2.7000303268432617,2.4258971214294434,true
93336.674478375,-0.8336631059646606,0.8547098636627197,0.20234528183937073,-1.0416898727416992,-2.6578316688537598,2.137906551361084,false
93336.684436375,-0.7156294584274292,0.5555281639099121,0.3345147967338562,-1.4936941862106323,-2.705641746520996,1.9544334411621094,false
93336.694395375,-0.5596163868904114,0.33804458379745483,0.5452297925949097,-1.8180238008499146,-2.732268810272217,1.5913265943527222,false
93336.704354375,-0.4326598644256592,0.368602991104126,0.801379382610321,-1.4462838172912598,-2.6213817596435547,0.9561960697174072,false
93336.714313375,-0.44951891899108887,0.5300551056861877,0.9055786728858948,-0.6908004879951477,-2.248185396194458,0.38146668672561646,false
93336.724271375,-0.6351263523101807,0.627081036567688,1.0182063579559326,-0.1572837084531784,-1.6454814672470093,-0.13006910681724548,false
93336.734230375,-0.8590002059936523,0.5882542133331299,1.150343894958496,-0.32360026240348816,-1.1192890405654907,-0.5921182632446289,false
93336.74418937501,-0.9406107068061829,0.39004069566726685,1.2808449268341064,-0.8994002342224121,-0.9178338646888733,-0.8486218452453613,false
93336.75414837501,-0.7862213253974915,0.1537448763847351,1.4152170419692993,-1.262831449508667,-0.6719895005226135,-1.0400394201278687,false
93336.764106375,-0.6485269069671631,-0.10341781377792358,1.5392537117004395,-2.1314496994018555,-0.6745767593383789,-1.3083486557006836,false
93336.77406537501,-0.6589446067810059,-0.16444051265716553,1.5752462148666382,-1.4485890865325928,-0.26347997784614563,-1.6974834203720093,false
93336.78402437501,-0.6980729699134827,0.16130220890045166,1.2768497467041016,-0.09130217134952545,0.330241858959198,-2.035653591156006,false
93336.793982375,-0.7601919770240784,0.2768610715866089,1.2079726457595825,0.6165143251419067,0.8518006801605225,-2.2393579483032227,false
