Timestamp,A,AX,AY,AZ,RX,RY,RZ
55102.442980375,0.23392577822630076,0.21122416853904724,-0.03974121809005737,-0.0923377275466919,-1.070144534111023,-1.2735129594802856,2.5252206325531006
55102.452939375005,0.20955304128747843,0.1917869746685028,-0.061694204807281494,-0.05765464901924133,-1.2835204601287842,-1.2246593236923218,2.523569345474243
55102.462897375,0.19337448013636085,0.1881599724292755,-0.04421281814575195,-0.00589415431022644,-1.3240948915481567,-1.0948076248168945,2.4692575931549072
55102.472856375,0.21554463022039733,0.20899444818496704,0.015589356422424316,0.05037638545036316,-1.2613990306854248,-1.0221112966537476,2.230253219604492
55102.482814375006,0.2717986779081886,0.24274307489395142,0.1031685471534729,0.06562447547912598,-1.0276492834091187,-1.0459165573120117,1.5567190647125244
55102.492773375,0.34179985288158576,0.26283398270606995,0.21453160047531128,0.0414925217628479,-0.521634578704834,-0.9267112016677856,1.0141568183898926
55102.502731375,0.39468842933214376,0.26611417531967163,0.2914813160896301,-0.0009188652038574219,-0.2085251361131668,-1.115108609199524,1.649763584136963
55102.512690375006,0.42374047418495053,0.2882719337940216,0.30838823318481445,-0.03676927089691162,-0.1329273134469986,-1.4174493551254272,1.8943302631378174
55102.522649375,0.40875255038900093,0.2632288634777069,0.31133705377578735,-0.02929934859275818,-0.17897896468639374,-1.4025429487228394,1.752609133720398
55102.532607375004,0.30199105164503803,0.19350656867027283,0.22659361362457275,-0.04908296465873718,-0.3242615759372711,-1.4042354822158813,1.689552903175354
55102.54256637501,0.19683087410949474,0.16108620166778564,0.08443379402160645,-0.07526329159736633,-0.516935408115387,-1.5071706771850586,1.690817952156067
55102.552524375,0.14612198796549267,0.12553143501281738,-0.03170245885848999,-0.06773808598518372,-0.7651394009590149,-1.6690846681594849,1.7423769235610962
55102.562483375004,0.14980598567700412,0.10788238048553467,-0.10095453262329102,-0.024726659059524536,-1.0203423500061035,-1.8099733591079712,1.8089662790298462
55102.57244137501,0.13796869722414884,0.09745615720748901,-0.09725731611251831,0.008869796991348267,-1.1272683143615723,-1.9103955030441284,1.8198686838150024
55102.582400375,0.09471687622172814,0.08929848670959473,-0.03155118227005005,0.0012608766555786133,-1.1010128259658813,-1.9827380180358887,1.7892686128616333
55102.592358375005,0.09897786663157729,0.0812179446220398,0.04541987180709839,-0.0337238609790802,-0.991161048412323,-2.026063919067383,1.7732875347137451
55102.602317375,0.13810911739266155,0.07778555154800415,0.09922647476196289,-0.05637058615684509,-0.8446438312530518,-2.0704944133758545,1.775233507156372
55102.612275375,0.15477812010179934,0.08695685863494873,0.1147947907447815,-0.05671796202659607,-0.7551858425140381,-2.1364474296569824,1.782349944114685
55102.622234375005,0.13534304172224207,0.09855663776397705,0.08781552314758301,-0.029879122972488403,-0.8113061189651489,-2.192732810974121,1.82766592502594
55102.632193375,0.11299218628381132,0.10298216342926025,0.04636436700820923,0.003500521183013916,-0.9491438865661621,-2.224200963973999,1.8678756952285767
55102.642151375,0.1009494790096153,0.09978216886520386,0.009658992290496826,0.011875182390213013,-1.1193466186523438,-2.241384983062744,1.8479636907577515
55102.652110375006,0.1052228805618354,0.10116887092590332,-0.02715963125228882,-0.009953320026397705,-1.3491369485855103,-2.265856981277466,1.8231920003890991
55102.662068375,0.13498910607227468,0.11524802446365356,-0.05994504690170288,-0.036695271730422974,-1.548119306564331,-2.326106548309326,1.8168143033981323
55102.672027375,0.18045937413284732,0.15990662574768066,-0.0757216215133667,-0.035520315170288086,-1.7029155492782593,-2.5091946125030518,1.7608095407485962
55102.681985375006,0.23966846220100296,0.22625166177749634,-0.0790557861328125,-0.0011575818061828613,-1.8347861766815186,-2.7479164600372314,1.6950373649597168
55102.691944375,0.29173370631305146,0.2839657664299011,-0.04866147041320801,0.045870035886764526,-1.9702494144439697,-2.943877696990967,1.6255475282669067
55102.701902375,0.32509877371510476,0.3176426291465759,0.010002076625823975,0.0685005933046341,-2.1896812915802,-3.0046792030334473,1.5193463563919067
55102.711861375006,0.3228012523747518,0.3125373125076294,0.059601664543151855,0.05448594689369202,-2.558591604232788,-2.982682228088379,1.3216005563735962
55102.721820375,0.30352831412722736,0.28791654109954834,0.09399837255477905,0.019945144653320312,-2.825451612472534,-2.9099206924438477,1.0825344324111938
55102.731778375004,0.2921420274333757,0.2773894667625427,0.09156358242034912,0.0042612552642822266,-3.128743886947632,-2.891611337661743,0.8584212064743042
55102.74173737501,0.2994074907584638,0.2972899079322815,0.017140567302703857,0.031140923500061035,-3.526573657989502,-3.0528182983398438,0.6279564499855042
55102.751695375,0.3613244783741793,0.3474663496017456,-0.04009765386581421,0.09063494205474854,-3.800365924835205,-3.2990026473999023,0.4646575152873993
55102.761654375005,0.4066515827915389,0.3910313844680786,-0.030078113079071045,0.10749545693397522,-4.01120662689209,-3.713681221008301,0.6175736784934998
55102.77161237501,0.4086420933533647,0.40384578704833984,-0.0014279484748840332,0.06240914762020111,-4.298018932342529,-4.4542412757873535,1.27275550365448
55102.781571375,0.3648411610755718,0.3625612258911133,0.035856544971466064,-0.01930643618106842,-4.194795608520508,-4.758785247802734,1.6952669620513916
55102.791529375005,0.3095352887177496,0.2864506244659424,0.047960758209228516,-0.10704158246517181,-4.044122695922852,-5.15194845199585,1.4797413349151611
55102.801488375,0.2591871340678413,0.2216894030570984,0.08155021071434021,-0.10668337345123291,-3.9558091163635254,-5.4657793045043945,1.227596640586853
55102.811446375,0.2882839099072932,0.19178521633148193,0.19865944981575012,-0.08282793313264847,-3.870206356048584,-5.714901924133301,1.243065595626831
55102.821405375005,0.3732216100122856,0.24039357900619507,0.28275182843208313,-0.039455048739910126,-3.566169023513794,-6.147762298583984,1.3017280101776123
55102.831364375,0.40585458901373217,0.3205801248550415,0.2478390634059906,0.0228501558303833,-3.0905542373657227,-6.770047187805176,0.9376235604286194
55102.841322375,0.38102837030359155,0.34455204010009766,0.15706008672714233,0.04241037368774414,-3.1053073406219482,-7.349893093109131,-0.1483841836452484
55102.851281375006,0.358305842864401,0.3356677293777466,0.1202802062034607,0.03525513410568237,-3.74483585357666,-6.803467273712158,-2.053032636642456
55102.861239375,0.27949126207124253,0.20040160417556763,0.18850696086883545,0.049190327525138855,-6.087170600891113,-5.819334506988525,-2.796233892440796
55102.871198375,0.4663538454925428,-0.4263320565223694,0.17685523629188538,0.06670166552066803,-5.955770015716553,-4.820951461791992,-1.7874376773834229
55102.881156375006,0.5677251083231539,-0.38003402948379517,0.42137929797172546,0.018039464950561523,-5.230388164520264,-2.7181553840637207,-1.6267317533493042
55102.891115375,0.29651198624273545,-0.0459589958190918,0.26763641834259033,-0.11907088756561279,-6.849987030029297,-1.5381087064743042,-2.3905060291290283
55102.901073375004,0.6000468074979074,-0.5886178612709045,-0.11226409673690796,0.03133619576692581,-8.056831359863281,-0.23188672959804535,-4.054012775421143
55102.91103237501,0.7708050249701882,-0.6808637976646423,0.29436951875686646,0.2095506191253662,-8.54683780670166,1.2433093786239624,-4.9764275550842285
55102.920991375,0.7871603845854348,-0.5985684990882874,0.46941524744033813,0.20245134830474854,-8.514176368713379,1.4005578756332397,-4.556219577789307
55102.930949375004,0.7170652261773919,-0.514218807220459,0.40452706813812256,0.2934610843658447,-5.326592922210693,-2.291790723800659,-4.478916645050049
55102.940908375,0.6112320814140587,-0.18301481008529663,0.49845433235168457,0.3027433156967163,-4.728049278259277,-5.283107757568359,-3.166510820388794
55102.950866375,1.5753663986925928,1.0349676609039307,0.9961631894111633,-0.6467458009719849,-8.58989143371582,-5.384715557098389,-1.0767377614974976
55102.960825375005,1.7355762617671513,1.3681285381317139,1.0622575283050537,0.10980986803770065,-11.938732147216797,-5.402555465698242,-0.07469183951616287
55102.970783375,2.3017992827735547,0.9605303406715393,1.085353136062622,1.7882030010223389,-13.667364120483398,-4.916083812713623,1.3613569736480713
55102.980742375,2.3008315463100657,1.0518558025360107,1.426565408706665,1.467084288597107,-5.319626808166504,7.199830532073975,-2.2277519702911377
55102.990700375005,1.2231754119267628,0.01463097333908081,0.6157769560813904,1.0567699670791626,-2.13889479637146,-2.139810800552368,-13.376504898071289
55103.000659375,1.9063299371417517,-0.5376566052436829,0.6965962648391724,1.6910862922668457,-3.991504192352295,-0.01988864690065384,-3.983818531036377
55103.010618375,2.1302951294128603,0.9051468372344971,1.757026195526123,0.7948116064071655,-4.296822547912598,1.8801641464233398,-2.657632350921631
55103.020576375005,2.500826831510246,1.7046740055084229,1.2056586742401123,1.3764477968215942,-2.485851764678955,3.939976215362549,-4.040818214416504
55103.030535375,0.955805826061506,0.31093430519104004,0.7057911157608032,0.5645737648010254,-3.068293809890747,3.4393231868743896,-3.0686874389648438
55103.040493375,0.6539138921300972,0.0704355239868164,0.33171409368515015,0.5591135621070862,-3.0407514572143555,3.2834787368774414,-3.387493848800659
55103.050452375006,1.6332838557777978,1.08621346950531,-0.14018672704696655,1.211653470993042,-2.2864251136779785,3.8741838932037354,-3.6802847385406494
55103.060410375,1.8100345664762905,1.236341118812561,-0.5446333885192871,1.2045996189117432,-1.949395775794983,4.476139068603516,-3.2642147541046143
55103.070369375004,1.471544546196835,0.9217601418495178,-0.7237786650657654,0.8899134993553162,-1.4001129865646362,5.087706089019775,-2.9927287101745605
55103.080327375006,1.459698732623948,1.0579123497009277,-0.567902147769928,0.8300777077674866,-0.7593055963516235,5.7312092781066895,-2.59431529045105
55103.090286375,1.373649972773544,1.1477882862091064,-0.3548929691314697,0.6659934520721436,-0.23855294287204742,6.271124839782715,-2.229492664337158
55103.100244375004,1.3499316321095156,1.1433908939361572,-0.40352779626846313,0.5934121608734131,0.09285049140453339,6.6529221534729,-1.913906455039978
55103.11020337501,1.4774783528123792,1.2144689559936523,-0.6040369868278503,0.585787296295166,0.3341374099254608,7.031106948852539,-1.5467848777770996
55103.120162375,1.5936287990930422,1.2769161462783813,-0.78830486536026,0.536389172077179,0.43449005484580994,7.316119194030762,-1.1468687057495117
55103.130120375004,1.6387523202190097,1.259416937828064,-0.942334771156311,0.45976442098617554,0.5666720867156982,7.353961944580078,-0.7323108911514282
55103.140079375,1.6950947771675073,1.2556886672973633,-1.053390622138977,0.4323892593383789,0.837628960609436,7.251666069030762,-0.4131444990634918
55103.150037375,1.801960789813411,1.2930177450180054,-1.1734912395477295,0.4450686573982239,1.0551021099090576,7.1869893074035645,-0.17448852956295013
55103.159996375005,1.8633223446210891,1.285949468612671,-1.2826344966888428,0.4161164164543152,0.853639543056488,7.064042091369629,0.14775916934013367
55103.169954375,1.870547909401269,1.233780860900879,-1.356811761856079,0.36850523948669434,0.5206999778747559,7.016417026519775,0.3896562457084656
55103.179913375,1.8493558941634372,1.1736117601394653,-1.3959324359893799,0.30679845809936523,0.17593465745449066,6.92104434967041,0.4876401126384735
55103.189871375005,1.7700186302714649,1.0718742609024048,-1.3874683380126953,0.2428644299507141,-0.024565421044826508,6.788627624511719,0.8693970441818237
55103.199830375,1.6622630975863637,1.019364356994629,-1.2976386547088623,0.20037174224853516,-0.11227203905582428,6.563783645629883,1.2433054447174072
55103.209789375,1.6963093343979867,1.0477545261383057,-1.3238639831542969,0.16449913382530212,-0.3985530436038971,6.3640265464782715,1.6446038484573364
55103.219747375006,1.702253697726919,0.9826416969299316,-1.383448839187622,0.13473030924797058,-0.7805379033088684,6.1826171875,2.0828857421875
55103.229706375,1.7001925339965314,0.9338852167129517,-1.4188554286956787,0.0732279121875763,-1.1680840253829956,5.993348121643066,2.501460552215576
55103.239664375,1.7216084883452474,0.9047982692718506,-1.464225172996521,0.036338984966278076,-1.469713807106018,5.824594497680664,2.684992551803589
55103.249623375006,1.7519200380106081,0.8841913938522339,-1.5120279788970947,0.03465241193771362,-1.441699504852295,5.563819885253906,2.6510534286499023
55103.259581375,1.7630850919607883,0.8830572366714478,-1.5251884460449219,0.049791187047958374,-1.315888524055481,5.199672698974609,2.6575071811676025
55103.269540375004,1.8015413216883398,0.9264965057373047,-1.5450388193130493,0.0032257437705993652,-1.3368439674377441,4.80461311340332,2.6989870071411133
55103.27949837501,1.7960743465026905,0.9613333940505981,-1.5166289806365967,-0.039467692375183105,-1.452105164527893,4.522630214691162,2.9287078380584717
55103.289457375,1.735153063142157,0.9687690138816833,-1.4367921352386475,-0.08871927857398987,-1.3834329843521118,4.1837382316589355,3.108792781829834
55103.299416375005,1.670465334898294,0.9732440710067749,-1.3520514965057373,-0.12331733107566833,-1.0955809354782104,3.838704824447632,3.357382297515869
55103.30937437501,1.6562086329919403,0.9889955520629883,-1.321943998336792,-0.13182905316352844,-0.9045180678367615,3.489851713180542,3.7620062828063965
55103.319333375,1.6876187729583396,1.0570573806762695,-1.3113648891448975,-0.10492351651191711,-0.8197384476661682,3.0101678371429443,4.146013259887695
55103.329291375005,1.7447293893759528,1.1929922103881836,-1.2723281383514404,-0.0450703501701355,-0.9229980111122131,2.4027249813079834,4.280791282653809
55103.339250375,1.8243564175230715,1.359596610069275,-1.2161890268325806,-0.025644630193710327,-1.356439232826233,1.8938809633255005,4.289431571960449
55103.349208375,1.8726382802648645,1.5147113800048828,-1.0976769924163818,-0.08676856756210327,-1.9974160194396973,1.3764175176620483,4.241903305053711
55103.359167375005,1.8346761691093696,1.5903970003128052,-0.8878353238105774,-0.22005105018615723,-2.3334572315216064,0.9832071661949158,4.255991458892822
55103.369125375,1.678757881632902,1.5033211708068848,-0.6590787768363953,-0.3519497811794281,-2.351226806640625,0.8310391902923584,4.41322135925293
55103.379084375,1.448904744036087,1.2730984687805176,-0.5136116743087769,-0.463409423828125,-2.327816963195801,0.6734656691551208,4.627763271331787
55103.389042375005,1.2623575121213353,1.0660759210586548,-0.4236806035041809,-0.5268048644065857,-1.9628113508224487,0.8968926668167114,5.345098495483398
55103.399001375,1.2108909075914336,1.0306543111801147,-0.349744975566864,-0.5307418704032898,-1.169796347618103,0.39259371161460876,5.325716495513916
55103.408960375,1.4100338011111682,1.2626457214355469,-0.2597719430923462,-0.5713489651679993,-0.3328702449798584,-0.2202736735343933,4.511916637420654
55103.418918375006,1.6203362419006315,1.5047924518585205,-0.0781816840171814,-0.5957993268966675,0.6138584017753601,-0.7141668200492859,3.6056394577026367
55103.428877375,1.768099273648379,1.6448310613632202,0.1836959719657898,-0.6220623850822449,1.3558926582336426,-1.0583271980285645,2.9589288234710693
55103.438834625005,1.7580207284801634,1.551859974861145,0.439095675945282,-0.6996874213218689,1.4713107347488403,-1.2331877946853638,2.884599447250366
55103.448793625,1.5960380092204145,1.21969735622406,0.6213616728782654,-0.8207224607467651,0.6480223536491394,-0.8295676112174988,3.0598959922790527
55103.458751625,1.4513781724098767,0.873646080493927,0.6914077997207642,-0.930159330368042,-0.7571465969085693,0.09195679426193237,3.4801886081695557
55103.468710625006,1.465656662817223,0.7227294445037842,0.7907059788703918,-1.0002977848052979,-1.7821078300476074,0.38828539848327637,3.4846317768096924
55103.478668625,1.5710452638010457,0.7943648099899292,0.89063560962677,-1.0217318534851074,-1.785956859588623,-0.25228744745254517,3.029667854309082
55103.488627625,1.665319232633801,0.9538729786872864,0.9222621917724609,-1.0064029693603516,-1.5354403257369995,-0.9046096205711365,2.594119071960449
55103.498586625006,1.6481688967868522,1.0127606391906738,0.9338909387588501,-0.9047785997390747,-1.366903305053711,-1.3058011531829834,2.4218575954437256
55103.508544625,1.6150705659859608,0.9517894983291626,1.0077109336853027,-0.8288958668708801,-0.8428523540496826,-1.643475890159607,2.2352778911590576
55103.518503625004,1.5350088366376775,0.7641130685806274,1.046129822731018,-0.8234049677848816,-0.4027364253997803,-1.7540711164474487,1.805995225906372
55103.52846162501,1.50722331080328,0.5931854844093323,1.0537828207015991,-0.8996637463569641,-0.4704185128211975,-1.7255265712738037,1.3335283994674683
55103.538420625,1.6057608385883475,0.5629528760910034,1.14994215965271,-0.9691155552864075,-0.9232779145240784,-1.884383201599121,0.9756787419319153
55103.548378625004,1.6765641157474755,0.6838683485984802,1.2623766660690308,-0.8657923936843872,-1.7664027214050293,-2.106761932373047,0.7367410063743591
55103.55833762501,1.7063008469462682,0.9096776247024536,1.2703406810760498,-0.685699462890625,-2.6040687561035156,-2.4223315715789795,0.5717447400093079
55103.568295625,1.7061121802041708,1.1231272220611572,1.1939821243286133,-0.4730863571166992,-3.134615182876587,-2.7462050914764404,0.49301666021347046
55103.578254625005,1.727967039222526,1.3062009811401367,1.1017566919326782,-0.25659555196762085,-3.35760760307312,-3.2130444049835205,0.472220242023468
55103.588213625,1.8241629922983245,1.5118632316589355,1.0198051929473877,-0.04286676645278931,-3.414854049682617,-3.6909713745117188,0.5268738865852356
55103.598171625,2.016535567518153,1.7556232213974,0.9711166620254517,0.20281821489334106,-3.243319511413574,-3.9730212688446045,0.3277224600315094
55103.608130625005,2.23823712827105,2.012930154800415,0.8988831639289856,0.3870745301246643,-3.3055202960968018,-4.096364498138428,-0.020488785579800606
55103.618088625,2.3058932158657792,2.107215166091919,0.7853027582168579,0.5099875926971436,-3.39314603805542,-4.2766265869140625,-0.2544616758823395
55103.628047625,2.2421167413587773,2.031449794769287,0.7146555781364441,0.6241527199745178,-3.632251262664795,-4.253726959228516,-0.318981796503067
55103.638005625005,2.1963566065222073,1.947927713394165,0.7594773173332214,0.6728700995445251,-3.2838478088378906,-4.153416156768799,-0.45505326986312866
55103.647964625,2.092924897414234,1.7777905464172363,0.8461394309997559,0.7098193168640137,-2.868293523788452,-4.30595588684082,-0.7180356979370117
55103.657922625,1.8895414872264316,1.4858862161636353,0.7159075140953064,0.92194664478302,-2.9237771034240723,-4.284417152404785,-0.915075957775116
55103.667881625006,1.9487121789901323,1.330143690109253,0.5128248929977417,1.328611135482788,-3.6451687812805176,-4.093081951141357,-1.202335238456726
55103.677839625,2.066261011162949,1.2274925708770752,0.3301711678504944,1.6290130615234375,-4.097379207611084,-4.132786273956299,-1.8725974559783936
55103.687798625004,1.9528514330060456,0.9710960388183594,0.13325971364974976,1.6890361309051514,-4.226267337799072,-3.9435431957244873,-2.7658815383911133
55103.69775762501,1.6907085050671888,0.7169033288955688,0.02401822805404663,1.5310022830963135,-3.906517267227173,-3.8645811080932617,-3.3479177951812744
55103.707715625,1.4233386740243827,0.4567798972129822,0.22135454416275024,1.3297545909881592,-2.941649913787842,-3.4510786533355713,-3.668898344039917
55103.717674625004,1.3029077516990166,0.08308005332946777,0.4789380431175232,1.2088360786437988,-2.0534112453460693,-3.126420736312866,-3.3792686462402344
55103.72763262501,1.320401726193407,-0.397319495677948,0.46702247858047485,1.1693964004516602,-1.5512949228286743,-3.636889696121216,-3.0235259532928467
55103.737591625,1.455035775638549,-0.7394412755966187,0.31303924322128296,1.2134093046188354,-1.3691505193710327,-4.829957962036133,-3.0457072257995605
55103.747549625004,1.4476150108268264,-0.9079804420471191,0.1361522674560547,1.1192065477371216,-1.7393455505371094,-6.612679958343506,-4.345793724060059
55103.757508625,1.3986457364678941,-0.9943143725395203,0.04194319248199463,0.9827459454536438,-3.660249710083008,-6.605724334716797,-4.735991477966309
55103.767466625,1.5840218220774527,-1.1612056493759155,0.14232337474822998,1.0679281949996948,-4.852322101593018,-6.198138236999512,-4.184011459350586
55103.777425625005,1.8232670464883374,-1.1786444187164307,0.15051251649856567,1.3829121589660645,-2.615835189819336,-4.918107986450195,-3.998955488204956
55103.787384625,1.5025244912581228,-1.0702359676361084,-0.10851621627807617,1.0489990711212158,-2.5055367946624756,-2.768105983734131,-4.115258693695068
55103.797342625,1.3873176866723063,-1.3356143236160278,-0.37321925163269043,0.03862813115119934,-1.2308286428451538,-0.2834559679031372,-3.7253689765930176
55103.807301625005,1.9929035155927532,-1.8243330717086792,-0.5212820768356323,0.6097034215927124,-0.5629435777664185,1.5048407316207886,-2.3788669109344482
55103.817259625,2.178400952466547,-1.7834612131118774,-0.8686925768852234,0.9000388979911804,-1.0224040746688843,2.487783670425415,-1.6067041158676147
55103.827218625,1.7063187012270584,-1.2078524827957153,-1.0297414064407349,0.6262974739074707,-1.6326419115066528,3.6009724140167236,-1.207332730293274
55103.837176625006,1.2671600239094925,-0.6996629238128662,-0.8612397313117981,0.6119088530540466,-1.613818883895874,4.669253826141357,-0.6706910133361816
55103.847135625,1.1002912567037415,-0.5543832778930664,-0.8098879456520081,0.49737465381622314,-0.9297038912773132,5.154420375823975,-0.04863330349326134
55103.857093625,1.1499873224425454,-0.4433658719062805,-0.9327027201652527,0.5059280395507812,0.848613977432251,4.326462745666504,0.7827610373497009
55103.867052625006,1.2962502502242756,-0.3550637364387512,-1.0945775508880615,0.596736490726471,1.2924151420593262,3.070566415786743,0.466808944940567
55103.877011625,1.2321545837659271,-0.07368385791778564,-1.210498571395874,0.21787339448928833,1.600874423980713,3.0458693504333496,-0.8602958917617798
55103.886969625004,1.4741671590104364,0.3615412712097168,-1.409550428390503,0.235848069190979,1.605705976486206,3.350813388824463,-1.4174832105636597
55103.89692862501,1.854509227409905,-0.03373876214027405,-1.7087593078613281,0.7198665142059326,0.9068238139152527,3.671372652053833,-1.1569126844406128
55103.906886625,1.7931287007619652,-0.26335668563842773,-1.7310740947723389,0.3864405155181885,0.6102539300918579,3.7671775817871094,-0.4299737513065338
55103.916845625004,1.7770248503777282,-0.3220370411872864,-1.695249080657959,0.42454683780670166,0.7515577077865601,3.8391292095184326,0.4732521176338196
55103.92680362501,1.8701069183848713,-0.2729785740375519,-1.8214210271835327,0.32435786724090576,0.528009295463562,4.177921772003174,0.7241807579994202
55103.936762625,1.8152635439641034,-0.15006831288337708,-1.8089118003845215,0.022345781326293945,0.7901042699813843,4.382636070251465,0.7903077006340027
55103.946720625005,1.6899792030361287,-0.11507293581962585,-1.68604576587677,0.006132006645202637,0.9323107004165649,4.372824192047119,0.6541842222213745
55103.956679625,1.5276285628619157,0.0862467885017395,-1.5136935710906982,-0.18692857027053833,1.2704684734344482,4.481211185455322,0.6518604755401611
55103.966638625,1.3380968627575047,0.15669605135917664,-1.2802503108978271,-0.35624247789382935,1.4130247831344604,4.6248369216918945,0.9250877499580383
55103.976596625005,1.2488876986511963,0.05146130919456482,-1.1574350595474243,-0.46627920866012573,1.3488214015960693,4.707050800323486,1.3773547410964966
55103.986555625,1.2185139070880242,0.018565833568572998,-1.061707854270935,-0.5976687073707581,1.2961581945419312,5.058619022369385,1.9343442916870117
55103.996513625,1.1718829258431396,0.007588967680931091,-0.9946134686470032,-0.6196741461753845,1.554975152015686,5.687786102294922,2.491475820541382
55104.006472625006,1.1319730717651675,0.02212083339691162,-1.000687599182129,-0.5286757349967957,1.424698829650879,5.1465349197387695,3.0359487533569336
55104.016430625,1.0899763588977707,0.21500782668590546,-0.971825897693634,-0.44426852464675903,2.2697277069091797,4.041749954223633,2.1987602710723877
55104.026389625,1.2328415412890428,0.8024620413780212,-0.8777828216552734,-0.3247310519218445,1.5582224130630493,2.0540575981140137,0.8796749114990234
55104.036347625006,1.8223626144119207,1.6775834560394287,-0.6691880226135254,-0.24270689487457275,1.1262484788894653,0.3338472545146942,0.22607222199440002
55104.046306625,2.138951794625176,2.102393388748169,-0.12557119131088257,-0.3732140064239502,0.6756493449211121,0.09087348729372025,1.6438158750534058
55104.056264625004,2.1077467404069044,1.8319041728973389,0.29437828063964844,-1.0000324249267578,-0.032266151160001755,0.7136368155479431,3.3257079124450684
55104.06622362501,2.2059781104767375,1.667022705078125,0.3871117830276489,-1.3919479846954346,0.8115257620811462,1.6427754163742065,5.391478061676025
55104.076182625,2.5014601642346346,1.9028022289276123,0.6456064581871033,-1.4899123907089233,2.477940320968628,-2.3119161128997803,4.585169315338135
55104.086140625004,2.8660195237135566,2.353370189666748,0.9761949181556702,-1.3125395774841309,2.6386945247650146,-4.6166839599609375,3.400170087814331
55104.09609962501,3.266502653305564,2.8905928134918213,1.3788321018218994,-0.6429111957550049,0.4891829192638397,-4.708975315093994,3.655904531478882
55104.106057625,3.7529339097355354,3.342031240463257,1.6500166654586792,-0.43907302618026733,-2.468928098678589,-4.498718738555908,3.650594472885132
55104.116016625005,3.335088955068658,2.8513994216918945,1.5760042667388916,-0.713127076625824,-4.769407749176025,-4.276991367340088,3.3220701217651367
55104.125974625,2.755513148612698,2.187851667404175,1.5036492347717285,-0.7383744120597839,-5.807004451751709,-4.556179046630859,2.836780071258545
55104.135933625,2.6556539481454298,2.051103115081787,1.5929864645004272,-0.5548585653305054,-6.285589218139648,-5.180300235748291,2.605046272277832
55104.145892625005,2.633250827427849,1.9136356115341187,1.8008050918579102,-0.17061561346054077,-5.682723522186279,-5.695013046264648,1.9395796060562134
55104.155850625,2.390775916637379,1.5115077495574951,1.8439701795578003,0.17586296796798706,-4.006783485412598,-6.193639278411865,0.4547278881072998
55104.165809625,1.741208124994711,0.8591846823692322,1.491504430770874,0.2627202868461609,-3.2525556087493896,-6.100636959075928,-0.6817353963851929
55104.175767625005,1.2847981280537617,0.21822881698608398,1.2058067321777344,0.38615092635154724,-4.22815465927124,-5.9953694343566895,-1.407639741897583
55104.185726625,1.388092622409874,-0.22401446104049683,1.1532894372940063,0.739284873008728,-5.395841598510742,-5.517983436584473,-2.1818363666534424
55104.195684625,1.6447371985210142,-0.5644779205322266,1.0397772789001465,1.142535924911499,-5.390698432922363,-4.823859691619873,-2.8179304599761963
55104.205643625006,1.8249104964290228,-0.827224612236023,0.8368802666664124,1.3948581218719482,-4.3923516273498535,-4.3970842361450195,-2.8758251667022705
55104.215601625,1.8946993027554622,-0.9393770098686218,0.511364221572876,1.5639574527740479,-2.549696445465088,-4.232204914093018,-2.662656545639038
55104.225560625004,1.9010957064316911,-0.829627275466919,0.1624300479888916,1.7027918100357056,-1.6087089776992798,-3.1801836490631104,-2.5340068340301514
55104.235518625006,1.6714397087096349,-0.6018035411834717,-0.1264083981513977,1.554208517074585,-1.148720383644104,-1.7438225746154785,-2.6095967292785645
55104.245477625,1.4606037011899875,-0.64369136095047,-0.20239412784576416,1.2954000234603882,-0.839641809463501,-0.5864048004150391,-2.9274330139160156
55104.255436625004,1.5048138690850168,-0.9397384524345398,-0.21824860572814941,1.1548696756362915,-1.528792381286621,0.7430490851402283,-2.9115657806396484
55104.26539462501,1.8349197685755556,-1.1316907405853271,-0.34842967987060547,1.4017144441604614,-2.032829999923706,2.0146872997283936,-2.5098724365234375
55104.275353625,2.1902608009517746,-1.1204298734664917,-0.6463397145271301,1.767519235610962,-0.9841340184211731,2.114482879638672,-2.3299143314361572
55104.285311625004,2.303159196847266,-0.9737868905067444,-1.1549067497253418,1.7385257482528687,1.267258644104004,2.1738858222961426,-1.9646728038787842
55104.295270625,2.2894373735636924,-0.8009465932846069,-1.6792323589324951,1.3342363834381104,0.3148384094238281,2.755683422088623,-1.7849984169006348
55104.305228625,2.1838077539517133,-0.5054714679718018,-1.978897213935852,0.7729687690734863,-1.0283253192901611,3.5376389026641846,-1.477146863937378
55104.315187625005,1.9398812229653817,-0.5033512115478516,-1.655815839767456,0.876384973526001,-2.067892074584961,3.9715888500213623,-0.6304476261138916
55104.325145625,1.6998324527608908,-0.6815734505653381,-1.345316767692566,0.7842262387275696,-1.053831934928894,4.1702470779418945,0.27789241075515747
55104.335104625,1.7555202068447417,-0.6764068603515625,-1.4177722930908203,0.783738911151886,0.0800141841173172,5.029608726501465,0.39646339416503906
55104.345063625005,1.6218450587730804,-0.6082857847213745,-1.4394924640655518,0.4338562488555908,0.32763251662254333,5.245066165924072,0.3133021891117096
55104.355021625,1.3414547469505709,-0.5615495443344116,-1.1991757154464722,0.2148035168647766,0.6646314859390259,4.214191436767578,0.3513883650302887
55104.364980625,1.1034774544306654,-0.2807597219944,-0.9957389831542969,0.3838493824005127,0.9791494607925415,4.208117961883545,0.16640117764472961
55104.374938625006,0.973223412362303,0.22599300742149353,-0.9457179307937622,-0.04133480787277222,2.5660383701324463,4.321774482727051,0.001858631381765008
55104.384897625,0.9859868966987749,0.16603675484657288,-0.9474704265594482,-0.21656811237335205,3.2513434886932373,5.256402969360352,0.31548550724983215
55104.394855625,1.1059660586691415,-0.09630662202835083,-0.9638373255729675,-0.533763587474823,2.7110607624053955,5.845302581787109,0.40210896730422974
55104.404814625006,1.0589170898615083,-0.22540399432182312,-0.8519542217254639,-0.5870881080627441,1.9271329641342163,6.327908039093018,1.1864564418792725
55104.414772625,0.9687299716717698,-0.3750317394733429,-0.8648924827575684,-0.22304695844650269,1.1317116022109985,5.4543657302856445,2.3720028400421143
55104.424731625004,1.1346471761466934,-0.2672206163406372,-1.101876974105835,-0.04341071844100952,0.6996343731880188,4.408073902130127,3.059877872467041
55104.434691375005,1.280102336738336,0.0233725905418396,-1.270353078842163,-0.15594476461410522,0.526069164276123,4.129965305328369,3.0117413997650146
55104.444649375,1.376290098957273,0.30983689427375793,-1.2703983783721924,-0.4292592406272888,0.6781007647514343,3.8873770236968994,2.4281809329986572
55104.454608375,1.3261946009890924,0.6415551900863647,-1.0105810165405273,-0.5708984732627869,1.7437081336975098,2.5896248817443848,1.651309609413147
55104.464566375005,1.5310720536480893,1.1474742889404297,-0.619299590587616,-0.8024664521217346,3.213865280151367,1.2775214910507202,2.260080099105835
55104.474525375,1.8504553166001154,1.6230571269989014,-0.2090243697166443,-0.8638166785240173,3.629532814025879,-0.5357798933982849,2.5072903633117676
55104.484483375,2.4262044973924346,2.22337007522583,0.2974541187286377,-0.9244537949562073,3.456685781478882,-1.6079282760620117,2.227217435836792
55104.494442375006,2.7321583481864002,2.3399088382720947,0.8679990172386169,-1.1117974519729614,2.6397430896759033,-1.486025333404541,3.024263858795166
55104.504400375,3.0896441489415154,2.298191547393799,1.5367499589920044,-1.3793535232543945,1.9667861461639404,-1.303484559059143,4.785662651062012
55104.514359375,3.6070621629595614,2.461599349975586,2.216139078140259,-1.4283394813537598,1.724493145942688,-2.4438135623931885,4.415508270263672
55104.524318375006,3.7467085705799135,2.5844719409942627,2.353752374649048,-1.3483989238739014,0.13675177097320557,-3.8771064281463623,3.088311195373535
55104.534276375,3.3722966231259384,2.6952545642852783,1.7078890800476074,-1.0913763046264648,-2.1823501586914062,-5.490384101867676,2.1351914405822754
55104.544235375004,3.3898154169823878,3.1869349479675293,1.051031470298767,-0.47919416427612305,-4.310217380523682,-6.1353044509887695,1.231194019317627
55104.55419337501,3.138324148889113,3.063994884490967,0.6789240837097168,-0.008712053298950195,-5.617925643920898,-6.302321434020996,0.7294557690620422
55104.564152375,2.2469210579932932,2.113755702972412,0.7619665265083313,-0.00990360975265503,-5.569479942321777,-6.381133079528809,0.48780590295791626
55104.574110375004,1.8961925963600355,1.4145002365112305,1.262549877166748,0.02651888132095337,-4.751180648803711,-6.804145812988281,0.18500033020973206
55104.58406937501,1.965591870169668,0.9904947876930237,1.6877410411834717,0.18439537286758423,-3.156789541244507,-6.5005927085876465,-0.258628785610199
55104.594027375,1.7098739164652978,0.3114481568336487,1.6587023735046387,0.2745456099510193,-2.3264544010162354,-5.419979095458984,-0.41773027181625366
55104.603986375005,1.4642551769432395,-0.39623332023620605,1.3796212673187256,0.2892879843711853,-3.4809319972991943,-4.589285850524902,-0.8294166326522827
55104.613945375,1.5797834258647128,-0.7367655038833618,1.2821710109710693,0.5558145046234131,-4.2897047996521,-4.4270548820495605,-2.1071317195892334
55104.623903375,1.8307398524694218,-0.9546573162078857,1.1352767944335938,1.0730258226394653,-4.64297342300415,-4.08046817779541,-2.9752376079559326
55104.633862375005,1.758240743877604,-1.0336803197860718,0.6304960250854492,1.2749079465866089,-4.267316818237305,-4.135684013366699,-3.094316005706787
55104.643820375,1.6056794975975834,-0.7334871888160706,0.1510787010192871,1.4203444719314575,-3.7454423904418945,-3.9543795585632324,-3.343299388885498
55104.653779375,1.6684970564996886,-0.29810070991516113,-0.1967511773109436,1.6298182010650635,-3.2081716060638428,-3.1726152896881104,-3.2031354904174805
55104.663737375005,1.6793721072218961,-0.3075140714645386,-0.39078694581985474,1.6040608882904053,-2.8918778896331787,-2.1440584659576416,-3.0900793075561523
55104.673696375,1.457262645199395,-0.6006157398223877,-0.45009785890579224,1.2491145133972168,-2.47237229347229,-1.008729338645935,-2.9238245487213135
55104.683654375,1.352918077446239,-0.8505589962005615,-0.44703012704849243,0.9524183869361877,-2.2740917205810547,0.1406569629907608,-2.7712414264678955
55104.693613375006,1.4139906408074963,-0.9699868559837341,-0.493685781955719,0.9026457667350769,-2.7548563480377197,1.2888333797454834,-2.6240921020507812
55104.703572375,1.72919766069245,-1.0028916597366333,-0.7691112160682678,1.1801698207855225,-1.08077871799469,1.5869050025939941,-2.5004448890686035
55104.713530375004,2.1026388224828185,-0.9557180404663086,-1.1903297901153564,1.44596266746521,0.18590691685676575,0.6882374286651611,-2.0166714191436768
55104.72348937501,2.1816923426361017,-0.7167906761169434,-1.7758625745773315,1.0451338291168213,0.6627799868583679,0.9515737295150757,-2.000429630279541
55104.733447375,2.4801942843483635,-0.24236410856246948,-2.3145432472229004,0.8576204776763916,0.9046095609664917,3.499880313873291,-2.0633785724639893
55104.743406375004,2.2723886993038964,-0.37975049018859863,-2.1656293869018555,0.5740987062454224,0.1550607979297638,4.741944313049316,-1.1675119400024414
55104.75336437501,1.7984809271219915,-0.811860978603363,-1.5790445804595947,0.28641510009765625,0.1735057234764099,4.950717449188232,1.0368008613586426
55104.763323375,1.8927445253456991,-0.7712006568908691,-1.5193259716033936,0.8242450952529907,0.036981429904699326,5.267941951751709,2.489234447479248
55104.773281375004,2.12100418034245,-0.5517485737800598,-1.84391450881958,0.891185462474823,-0.7125964164733887,5.397095680236816,2.586500883102417
55104.783240375,2.0890255644316094,-0.40078723430633545,-1.990738868713379,0.4902613162994385,-0.16185656189918518,5.934898853302002,1.8853392601013184
55104.793199375,2.0971997405230014,-0.07228785753250122,-2.042715072631836,0.46939998865127563,-0.5386282801628113,5.782420635223389,0.4414266049861908
55104.803157375005,1.9347867437641115,0.39503246545791626,-1.8829437494277954,0.20462632179260254,0.5165515542030334,5.140419960021973,0.9446130394935608
55104.813116375,1.5528873582089693,0.26748645305633545,-1.501733660697937,0.291043221950531,1.0227773189544678,4.798773765563965,1.3220305442810059
55104.823074375,1.422071626481246,0.4501863718032837,-1.323582649230957,-0.26028621196746826,2.3615989685058594,5.44937801361084,1.6125168800354004
55104.833033375005,1.1032618363974847,0.22690561413764954,-0.7961584329605103,-0.7292683124542236,3.09187388420105,6.326406002044678,2.23030948638916
55104.842991375,1.1123057192346555,-0.12613043189048767,-0.6278125643730164,-0.9094869494438171,2.757152557373047,6.928031921386719,2.8117549419403076
55104.852950375,1.0838025809281384,-0.006320834159851074,-0.5256518125534058,-0.9477754235267639,1.5858601331710815,7.109009265899658,3.690545082092285
55104.862908375006,0.7800426573551569,0.08495950698852539,-0.42207688093185425,-0.6504610180854797,1.8760895729064941,4.898465156555176,4.543676376342773
55104.872867375,0.7932836182439543,0.6151720881462097,-0.42610621452331543,-0.2632407546043396,3.0114104747772217,2.345414400100708,3.5896365642547607
55104.882826375004,1.9055362217753136,1.8759119510650635,-0.3211933970451355,-0.09411400556564331,4.950206279754639,0.4914800822734833,2.675114393234253
55104.892784375006,2.6472319747901527,2.6170942783355713,0.180153489112854,-0.35524553060531616,6.423068523406982,-1.2932727336883545,2.874148368835449
55104.902743375,2.835698787898198,2.5237390995025635,0.8154774308204651,-1.0034565925598145,5.933149337768555,-2.3756632804870605,2.631779909133911
55104.912701375004,3.0843490928106623,2.3902761936187744,1.2506951093673706,-1.495175838470459,3.5257411003112793,-2.0864293575286865,4.02278995513916
55104.92266037501,3.315256024285985,2.1995105743408203,1.7899048328399658,-1.7173573970794678,0.9515411853790283,-1.9557504653930664,5.77387809753418
55104.932618375,3.469876811457488,2.254237651824951,2.0519607067108154,-1.6576836109161377,-0.542426586151123,-2.8347280025482178,4.411872863769531
55104.942577375004,3.26354751237126,2.396420955657959,1.5917637348175049,-1.5408430099487305,-1.2523486614227295,-4.934708595275879,2.1040358543395996
55104.95253537501,2.93920288054262,2.514958381652832,1.0717098712921143,-1.0795072317123413,-2.7070257663726807,-6.466348648071289,0.7187067270278931
55104.962494375,3.363632199095829,3.1967782974243164,1.0087974071502686,-0.2774128317832947,-4.0271453857421875,-6.235931396484375,-0.06077894940972328
55104.972452375005,3.2210052108070744,2.944850206375122,1.3034064769744873,0.06215614080429077,-4.600868225097656,-6.179851531982422,-0.25214439630508423
55104.982411375,2.5042948604051323,1.7201874256134033,1.818997859954834,-0.060784488916397095,-4.042259216308594,-6.156984806060791,-0.33499667048454285
55104.992370375,2.3088333057532915,0.9528656601905823,2.1029841899871826,0.01468890905380249,-2.9813244342803955,-5.437121391296387,-0.5123888850212097
55105.002328375005,2.0586366028095844,0.3887818455696106,2.0215823650360107,0.006170928478240967,-2.671539068222046,-4.969919204711914,-0.6620270609855652
55105.012287375,1.8438869238704456,-0.19397026300430298,1.8321373462677002,0.07461413741111755,-3.1331706047058105,-4.346949100494385,-0.7327325344085693
55105.022245375,1.6261763675200407,-0.5134610533714294,1.4813916683197021,0.4316086769104004,-3.8186047077178955,-4.391741752624512,-1.7762879133224487
55105.032204375006,1.4628718429961205,-0.6920563578605652,0.9495775103569031,0.87140953540802,-4.207421779632568,-4.2537102699279785,-3.0626513957977295
55105.042162375,1.5729263977055465,-0.8689145445823669,0.5310412049293518,1.1987828016281128,-4.410576343536377,-4.074857234954834,-3.278080940246582
55105.052121375,1.6715761186240725,-0.7558173537254333,0.19791871309280396,1.477746605873108,-4.424947261810303,-4.270631790161133,-3.514989137649536
55105.062080375006,1.811857945873258,-0.41475576162338257,-0.21815329790115356,1.7502045631408691,-3.3358683586120605,-3.4335508346557617,-3.4508368968963623
55105.072038375,1.826440649803024,-0.2569631338119507,-0.5638707876205444,1.7181109189987183,-1.955387830734253,-1.8586753606796265,-2.7043347358703613
55105.081997375004,1.426818610372881,-0.36261415481567383,-0.7204147577285767,1.176998257637024,-1.302768588066101,-0.5688734650611877,-2.3620688915252686
55105.09195537501,1.2342266728539988,-0.6781021952629089,-0.747868537902832,0.7100602388381958,-0.8046813011169434,0.9789572358131409,-2.1953089237213135
55105.101914375,1.300136879987516,-0.8980588912963867,-0.6845000982284546,0.6444422006607056,-0.766747772693634,2.315664768218994,-2.0159716606140137
55105.111872375004,1.6237551076921908,-0.9660683274269104,-0.8456606268882751,0.9940577149391174,-0.0971953496336937,2.909759521484375,-1.5796064138412476
55105.12183137501,2.211063313612534,-0.9974570274353027,-1.2990092039108276,1.4854142665863037,2.093067169189453,0.6963707208633423,0.025567922741174698
55105.131789375,2.7225850366436215,-0.9011223912239075,-2.0244555473327637,1.5817798376083374,1.4783345460891724,1.1777522563934326,-0.49138885736465454
55105.141748375005,3.085624167405033,-0.404560923576355,-2.9103941917419434,0.9418134689331055,0.09664256870746613,3.717695713043213,-1.7236974239349365
55105.151706375,3.0303360881893258,-0.16954034566879272,-2.993717670440674,0.43800386786460876,-0.5450602173805237,5.055331707000732,-2.1089389324188232
55105.161665375,2.1208979520792046,-0.5556827783584595,-1.9801877737045288,0.5179586410522461,0.15499216318130493,4.42791223526001,-0.9265961647033691
55105.171624375005,1.6800544529761543,-0.42073601484298706,-1.5558298826217651,0.474296897649765,0.21394595503807068,4.167009353637695,0.6106748580932617
55105.181582375,1.7344433934383043,-0.3495783805847168,-1.6192963123321533,0.5137784481048584,0.18085405230522156,4.5309929847717285,1.694128394126892
55105.191541375,1.5654502762805274,-0.3990229070186615,-1.449389100074768,0.43667668104171753,0.5812468528747559,5.121171951293945,2.1621322631835938
55105.201499375005,1.2774488917892082,-0.3617585003376007,-1.2249064445495605,0.024711549282073975,0.7249430418014526,5.624598979949951,1.9555457830429077
55105.211458375,1.2302561102047824,-0.26737359166145325,-1.1654274463653564,-0.2895174026489258,1.4402533769607544,5.5118489265441895,1.8060483932495117
55105.221416375,1.2537748069925567,-0.18922927975654602,-1.2039813995361328,-0.2942317724227905,1.7058885097503662,4.946142673492432,1.821321964263916
55105.231375375006,1.3120543769960242,-0.029512792825698853,-1.2537400722503662,-0.38568317890167236,1.9387577772140503,4.540200233459473,1.8943544626235962
55105.241333375,1.2026184119927108,0.12313556671142578,-1.0591061115264893,-0.556257963180542,1.9367811679840088,4.254207611083984,2.216247081756592
55105.251292375004,1.0793733904032394,0.06488922238349915,-0.8948157429695129,-0.600117564201355,1.8207756280899048,3.383476972579956,2.730358123779297
55105.26125137501,1.025581173927733,0.09538084268569946,-0.8520553708076477,-0.5627796053886414,1.6451470851898193,1.7860480546951294,2.67825984954834
55105.271209375,1.0110100237953,0.33868810534477234,-0.7381539940834045,-0.6021298170089722,2.462307929992676,0.7757126092910767,2.04308819770813
55105.281168375004,1.167185239375376,0.6499793529510498,-0.44722652435302734,-0.8601375818252563,3.9232699871063232,0.4781184792518616,0.8952434062957764
55105.29112637501,1.5949605627000156,0.9539211988449097,-0.006591498851776123,-1.2782371044158936,4.568518161773682,0.24017208814620972,0.47225600481033325
55105.301085375,2.154983997384758,1.373958706855774,0.5168031454086304,-1.5776907205581665,3.5807559490203857,-0.18078339099884033,1.849631428718567
55105.311043375004,2.919536835506195,2.102799892425537,1.1943490505218506,-1.6356828212738037,2.534393072128296,-1.3677549362182617,2.9015798568725586
55105.321002375,3.691176967938206,2.6919236183166504,2.072606325149536,-1.4431346654891968,3.1064891815185547,-2.262195110321045,3.5868005752563477
55105.330960375,3.837648627038378,2.4698073863983154,2.5823659896850586,-1.399637222290039,1.6826552152633667,-2.7447211742401123,3.4858407974243164
55105.340919375005,3.2666191151637114,2.250591993331909,1.8026630878448486,-1.5349403619766235,-0.31728416681289673,-3.0147247314453125,3.248755931854248
55105.350878375,3.0795412209060484,2.5976290702819824,1.0762534141540527,-1.2560158967971802,-1.9012229442596436,-3.654104709625244,2.977041721343994
55105.360836375,3.0990975976204536,2.8356525897979736,0.9051111340522766,-0.8627016544342041,-3.2470626831054688,-3.638678550720215,3.042879581451416
55105.370795375005,2.847915195778225,2.5182151794433594,1.197876214981079,-0.578191876411438,-4.54237174987793,-3.6378917694091797,3.1583285331726074
55105.380753375,2.7084875653557448,2.002119302749634,1.7864675521850586,-0.3687233030796051,-3.978044033050537,-4.176263809204102,2.170332908630371
55105.390712375,2.2927913304427934,1.3554097414016724,1.8430778980255127,-0.15106415748596191,-2.6631767749786377,-4.71023416519165,0.2919294536113739
55105.400670375006,1.4611276214393105,0.6215935945510864,1.3198736906051636,-0.08030423521995544,-2.7977147102355957,-4.880053997039795,-0.7497976422309875
55105.410629375,1.1257160483801922,0.11494362354278564,1.10933256149292,0.1529897153377533,-3.7958364486694336,-5.187273025512695,-1.3369015455245972
55105.420587375,1.2847314676770984,-0.14889508485794067,1.0940157175064087,0.656882643699646,-4.421044826507568,-5.084420680999756,-1.9272372722625732
55105.430546375006,1.3167001216340273,-0.41570335626602173,0.7720041275024414,0.9822930097579956,-5.010568141937256,-4.550687313079834,-2.401885509490967
55105.440504625,1.2778625571429585,-0.6357458829879761,0.4303854703903198,1.0215322971343994,-5.771154880523682,-4.00601053237915,-2.8132667541503906
55105.450462625005,1.368734187558077,-0.7461612224578857,0.2256171703338623,1.1250660419464111,-5.753074645996094,-3.327630043029785,-3.287652015686035
55105.460421625,1.5918251655809221,-0.7971163988113403,0.08207100629806519,1.3754189014434814,-4.238636016845703,-3.049246072769165,-3.979569673538208
55105.470379625,1.7748577488629858,-0.7614156603813171,-0.08247178792953491,1.6011135578155518,-2.8449761867523193,-2.6250879764556885,-4.48612117767334
55105.480338625006,1.8174512353114312,-0.5963465571403503,-0.2590029835700989,1.6971791982650757,-1.8459292650222778,-1.4712251424789429,-4.169686794281006
55105.490296625,1.7688551152765324,-0.5058358907699585,-0.4574856162071228,1.632080078125,-1.0286775827407837,-0.3744906187057495,-4.333970069885254
55105.500255625004,1.6786759078900662,-0.6136103272438049,-0.7412282228469849,1.3755056858062744,-0.20008817315101624,1.1805557012557983,-4.824350833892822
55105.510213625006,1.7415365640293061,-0.8491483330726624,-0.9691669344902039,1.1715853214263916,-0.5976162552833557,2.2005057334899902,-3.3336808681488037
55105.520172625,1.9677358988704738,-0.8711146116256714,-1.2698638439178467,1.2249855995178223,-1.320098638534546,2.0755791664123535,-1.2954105138778687
55105.530131625004,2.4096711571247043,-0.5363156199455261,-1.8790154457092285,1.4100289344787598,-1.7280510663986206,4.166003227233887,-0.9974178671836853
55105.54008962501,2.7564982578631865,-0.28473252058029175,-2.5358076095581055,1.0425400733947754,-2.70389986038208,5.34653377532959,-0.6098230481147766
55105.550048625,2.8881280661719115,-0.6578527092933655,-2.6550559997558594,0.9269256591796875,-2.020336151123047,4.96146297454834,0.2885649502277374
55105.560006625004,2.68058437439675,-0.6261444091796875,-2.3365516662597656,1.1549900770187378,-0.8516800403594971,4.952428340911865,0.49462518095970154
55105.569965625,2.0471758137902163,-0.17607760429382324,-1.8588591814041138,0.8393855094909668,-0.13727658987045288,4.717742443084717,0.5484574437141418
55105.579923625,1.5592428272365586,-0.06685328483581543,-1.4088506698608398,0.6647620797157288,0.545585036277771,5.300072193145752,0.9161880612373352
55105.589882625005,1.1970721208444361,0.16780495643615723,-1.1513595581054688,0.28141486644744873,0.2609490752220154,4.99442720413208,0.8170132637023926
55105.599840625,1.1709366288718395,0.12407591938972473,-1.162863850593567,0.05869770050048828,1.8470170497894287,5.995460033416748,2.5119900703430176
55105.609799625,1.5093823296460656,-0.04107707738876343,-1.504043698310852,0.12000101804733276,1.3463151454925537,6.257664203643799,2.4551122188568115
55105.619758625005,1.753769431834843,0.39567556977272034,-1.521860957145691,-0.7765869498252869,2.2724266052246094,7.787578582763672,2.1721420288085938
55105.629716625,1.1653270230933803,-0.11519122123718262,-0.8122395873069763,-0.8276381492614746,1.3689393997192383,9.02521800994873,2.4193179607391357
55105.639675625,1.1577586794726802,-0.5083675384521484,-0.945686399936676,-0.43317991495132446,0.5877652764320374,6.093966484069824,3.936150550842285
55105.649633625006,1.0867899847774054,-0.23455116152763367,-1.0611560344696045,-0.006789267063140869,0.9863991737365723,4.420828342437744,4.603629112243652
55105.659592625,1.1697165235439995,0.5622798800468445,-0.9851993322372437,-0.28541260957717896,3.2321746349334717,3.679901123046875,2.968327283859253
55105.669550625,1.5556363521317724,1.2518064975738525,-0.8068397641181946,-0.44943803548812866,4.4627838134765625,2.2879326343536377,1.2335726022720337
55105.679509625006,1.4790405921456014,1.390320062637329,-0.48178017139434814,-0.14986348152160645,3.9205756187438965,0.7661612033843994,2.1994669437408447
55105.689467625,2.2990897073732346,2.2346537113189697,0.12262016534805298,-0.5264034271240234,3.736107349395752,0.07380082458257675,2.149289846420288
55105.699426625004,2.9601938953243843,2.7074859142303467,0.7943890690803528,-0.8951055407524109,3.0637881755828857,0.027184588834643364,1.3207347393035889
55105.70938562501,3.028321279022138,2.2659785747528076,1.2756016254425049,-1.5520668029785156,0.6325345039367676,0.8356143236160278,5.076277256011963
55105.719343625,3.665836824749338,2.336818218231201,1.9860628843307495,-2.0082814693450928,1.3740651607513428,-0.5169159770011902,6.099838733673096
55105.729302625004,4.22012610848793,2.9631457328796387,2.302427291870117,-1.9308185577392578,2.0968971252441406,-1.6664408445358276,3.6907904148101807
55105.73926062501,3.7242394791027316,2.6279711723327637,1.7435503005981445,-1.9808481931686401,1.0105997323989868,-4.689917087554932,3.485513687133789
55105.749219625,3.351840189354129,2.6896839141845703,1.5567927360534668,-1.25571870803833,-0.7478131651878357,-6.283987998962402,1.9235979318618774
55105.759177625005,3.9003502220311344,3.5744423866271973,1.5434656143188477,-0.23196417093276978,-2.375683546066284,-6.892889976501465,0.579248309135437
55105.769136625,2.781691520865295,2.480775833129883,1.2302803993225098,-0.26451677083969116,-3.3421051502227783,-6.386268138885498,0.19133491814136505
55105.779094625,1.991848444072425,1.307546615600586,1.4255130290985107,-0.47507333755493164,-4.083405017852783,-6.79838752746582,0.04846005514264107
55105.789053625005,2.031149238497765,0.7409392595291138,1.867516279220581,-0.29826027154922485,-4.398843765258789,-6.4985175132751465,0.5495453476905823
55105.799012625,1.957447361665603,0.13636672496795654,1.9526457786560059,-0.013369858264923096,-3.8699963092803955,-5.242821216583252,1.192758560180664
55105.808970625,1.7587946492532873,-0.36367905139923096,1.7199770212173462,0.05268028378486633,-2.5848584175109863,-5.4206624031066895,-0.09458761662244797
55105.818929625006,1.5560236530286085,-0.8807642459869385,1.2449166774749756,0.3092675507068634,-2.466101884841919,-5.350679874420166,-2.3294570446014404
55105.828887625,1.5435303469279136,-1.1468989849090576,0.8477677702903748,0.5902528762817383,-2.9921116828918457,-4.572803974151611,-2.9487791061401367
55105.838846625,1.6561607423193538,-1.1090049743652344,0.7381934523582458,0.9838936924934387,-3.058156967163086,-4.746326446533203,-2.3715529441833496
55105.848804625006,1.5993599607638411,-0.7026430368423462,0.43088191747665405,1.3706151247024536,-3.134793281555176,-4.12406587600708,-2.522442102432251
55105.858763625,1.5961722713681663,-0.1452852487564087,-0.05757439136505127,1.5885034799575806,-3.8545289039611816,-2.883335590362549,-3.379744291305542
55105.868721625004,1.7130884433668505,-0.3039124011993408,-0.37837719917297363,1.6429059505462646,-3.8193774223327637,-1.090602159500122,-3.1537246704101562
55105.87868062501,1.7963095890623568,-0.7900622487068176,-0.5421546697616577,1.5194071531295776,-2.205181837081909,-0.07183493673801422,-2.235799551010132
55105.888639625,1.7793953070422137,-0.7223585247993469,-0.7964906096458435,1.4177618026733398,-0.5698130130767822,0.74274080991745,-2.0457911491394043
55105.898597625004,1.8559176137871163,-0.5152987837791443,-1.1964640617370605,1.321881651878357,-0.6396970152854919,1.0166618824005127,-1.9713493585586548
55105.90855662501,2.1675333082491726,-0.5829208493232727,-1.51297128200531,1.4385137557983398,-1.2100263833999634,1.3735408782958984,-1.7970184087753296
55105.918514625,2.4389421988572537,-0.6007363796234131,-1.7739330530166626,1.562279224395752,-0.9887466430664062,1.7998157739639282,-1.556465744972229
55105.928473625005,2.562664503265633,-0.5940974950790405,-2.0207479000091553,1.459751844406128,-0.9314391613006592,2.2484850883483887,-1.4091347455978394
55105.938431625,2.5254848338786684,-0.5813307762145996,-2.175727605819702,1.142951250076294,-0.8472164273262024,2.8115174770355225,-1.0574904680252075
55105.948390625,2.3385841877543516,-0.5204044580459595,-2.1183629035949707,0.8430265784263611,-0.522017776966095,4.095205783843994,-0.6650114059448242
55105.958348625005,1.82043444791412,-0.3882009983062744,-1.7299786806106567,0.4128623604774475,-0.05531827360391617,4.783308029174805,0.1670977622270584
55105.968307625,1.375371342478225,-0.5083000659942627,-1.2623982429504395,0.19906795024871826,0.051236800849437714,5.053350925445557,1.3195488452911377
55105.978266625,1.299989421244831,-0.5233478546142578,-1.1571869850158691,0.2774847745895386,0.32047519087791443,5.195711135864258,1.79570472240448
55105.988224625005,1.190177670276481,-0.350765198469162,-1.1224913597106934,0.18302953243255615,1.0799247026443481,5.360719203948975,1.5110797882080078
55105.998183625,1.155331847246419,-0.22009044885635376,-1.133988380432129,-0.020548105239868164,1.5633251667022705,5.329340934753418,0.9225776791572571
55106.008141625,1.1691535846523244,-0.07180079817771912,-1.1607723236083984,-0.11988478899002075,1.8025810718536377,5.270477294921875,0.7967833876609802
55106.018100625006,1.0514922420843125,0.09716105461120605,-1.0302705764770508,-0.18638187646865845,2.177874803543091,5.368321895599365,1.1637752056121826
55106.028058625,0.910672678935156,0.1553921103477478,-0.8451064229011536,-0.3016175627708435,2.131802558898926,5.047800540924072,1.8322783708572388
55106.038017625004,0.812514908652866,0.08703815937042236,-0.7154404520988464,-0.3751663565635681,2.4637858867645264,3.9374496936798096,2.877366542816162
55106.047975625006,0.7487270411473164,0.14598217606544495,-0.6485074162483215,-0.344556987285614,3.3110134601593018,2.849149465560913,3.4794464111328125
55106.057934625,0.9155877944725388,0.549452006816864,-0.5562418103218079,-0.47644364833831787,3.8008742332458496,2.0840377807617188,3.1613824367523193
55106.067893625004,1.2899613107465868,1.0361273288726807,-0.3257014751434326,-0.6959589719772339,4.64280891418457,1.2713721990585327,2.240666389465332
55106.07785162501,1.688249404250887,1.3990179300308228,0.048165738582611084,-0.9437239766120911,5.3565192222595215,0.4804193079471588,2.0386927127838135
55106.087810625,2.20857433417671,1.694515347480774,0.4524432420730591,-1.3422791957855225,4.947458744049072,-0.4198891818523407,2.3158681392669678
55106.097768625004,2.5890857388369004,1.8670995235443115,0.8009405732154846,-1.6049294471740723,3.7558929920196533,-0.9701842665672302,3.1508536338806152
55106.107727625,2.873372027578015,2.058184862136841,1.0716216564178467,-1.694629430770874,2.1979498863220215,-1.8272552490234375,4.3421220779418945
55106.117685625,3.41738014308214,2.5329103469848633,1.3566765785217285,-1.8499407768249512,0.8504853248596191,-3.2153804302215576,4.506781578063965
55106.127644625005,3.671274549600424,2.8679099082946777,1.386756420135498,-1.8248989582061768,-0.9866546392440796,-4.065457820892334,4.1370415687561035
55106.137602625,3.4551557622326374,2.8477375507354736,1.0251398086547852,-1.6666074991226196,-2.5682597160339355,-4.749231338500977,3.100766658782959
55106.147561625,3.192207454867586,2.771230936050415,0.6783463358879089,-1.431891679763794,-3.6889617443084717,-4.972706317901611,2.0470969676971436
55106.157520625005,2.6929136602293418,2.3434104919433594,0.6887146234512329,-1.1339679956436157,-4.2379350662231445,-4.941856861114502,1.5714879035949707
55106.167478625,2.298055562326176,1.831284999847412,1.1389634609222412,-0.793861985206604,-4.487742900848389,-5.376781463623047,1.0131908655166626
55106.177437625,2.149968582027872,1.469458818435669,1.537172794342041,-0.31647351384162903,-4.955427169799805,-6.035833358764648,-0.0946115031838417
55106.187395625006,1.8166533308363644,0.952549397945404,1.5285698175430298,0.2373884618282318,-4.024746417999268,-5.835059642791748,-0.6339191794395447
55106.197354625,1.719412489114481,0.22424709796905518,1.623206377029419,0.5208585262298584,-2.532788038253784,-5.340534210205078,-0.6217246055603027
55106.207312625,1.899644885014687,-0.44789737462997437,1.7586281299591064,0.5614852905273438,-2.653676748275757,-5.007249355316162,-1.1454838514328003
55106.217271625006,2.086516426954648,-0.921066403388977,1.690474510192871,0.8046635389328003,-3.4971306324005127,-3.553121328353882,-1.3681567907333374
55106.227229625,2.0142868168823167,-0.964626133441925,1.3075816631317139,1.190410852432251,-4.920129299163818,-3.2461109161376953,-2.059847593307495
55106.237188625004,1.7081603465934188,-0.6237775087356567,0.5868753790855408,1.4779345989227295,-5.352202415466309,-3.2329823970794678,-3.559945583343506
55106.24714762501,2.089468831764022,-0.4640539288520813,0.016885817050933838,2.0372159481048584,-4.3948283195495605,-2.5405280590057373,-3.7399742603302
55106.257105625,2.3666984498798183,-0.4621075987815857,-0.41719233989715576,2.283345937728882,-1.2359389066696167,-1.4760780334472656,-3.0449230670928955
55106.267064625004,2.1459117878809546,-0.5355971455574036,-0.8785809874534607,1.8831273317337036,0.43212562799453735,0.10625084489583969,-2.6490867137908936
55106.27702262501,1.9425500708968118,-0.6676653623580933,-1.1906201839447021,1.3820807933807373,-0.27789202332496643,1.5536317825317383,-2.3233048915863037
55106.286981625,1.9543568134684302,-0.8566356301307678,-1.165436029434204,1.3143229484558105,-1.1772737503051758,2.291929244995117,-1.7602715492248535
55106.296939625005,2.248851739716558,-0.9506344199180603,-1.1570713520050049,1.6777408123016357,-0.5024673342704773,2.886737585067749,-1.2280607223510742
55106.306898625,2.5455754693028583,-0.9063981175422668,-1.469400405883789,1.8706307411193848,-0.49360406398773193,1.8186320066452026,-0.6635652780532837
55106.316857625,2.6234885232737737,-0.7067931294441223,-1.9123518466949463,1.6510741710662842,-0.6336299777030945,2.384511947631836,-1.0450741052627563
55106.326815625005,2.739162001430524,-0.23960751295089722,-2.277174949645996,1.503353238105774,-0.6956497430801392,4.188734531402588,-1.4919995069503784
55106.336774625,2.4979422446914814,-0.27027589082717896,-2.2570621967315674,1.0355368852615356,-0.9756733775138855,4.798542022705078,-0.6076425313949585
55106.346732625,2.019169383395464,-0.5273243188858032,-1.8361207246780396,0.6539378762245178,-0.8219897747039795,4.906956672668457,0.8068748712539673
55106.356691625006,1.7137061898495893,-0.4191402196884155,-1.5201441049575806,0.6710233092308044,-0.823138415813446,5.0175065994262695,1.4147940874099731
55106.366649625,1.5927864181301825,-0.29080528020858765,-1.4500036239624023,0.591515302658081,-0.35577842593193054,4.987478256225586,1.1321076154708862
55106.376608625,1.3595720838258594,-0.10083058476448059,-1.3154265880584717,0.32851535081863403,0.10260245203971863,5.737163543701172,0.8401777744293213
55106.386566625006,1.201954321596565,0.13841381669044495,-1.1932264566421509,-0.04179030656814575,1.0522596836090088,5.5881853103637695,0.5594653487205505
55106.396525625,0.9856278565298038,0.10845047235488892,-0.958024263381958,-0.20467114448547363,1.4035162925720215,5.798958778381348,1.1374770402908325
55106.406484625004,0.949245576838111,0.08444520831108093,-0.8754132986068726,-0.3571942448616028,1.912871241569519,5.932234287261963,1.313371181488037
55106.416442625006,0.9778661507737543,0.18841522932052612,-0.7343761920928955,-0.6175868511199951,2.1400833129882812,6.285000801086426,2.067269802093506
55106.426401625,0.8845075076175957,0.05879431962966919,-0.5977734327316284,-0.6492793560028076,1.678314208984375,5.842375755310059,2.73260498046875
55106.436359750005,1.0070184794270436,0.34079238772392273,-0.5036490559577942,-0.8026732802391052,2.1048531532287598,4.840952396392822,3.1871750354766846
55106.44631875,0.9898033237528863,0.5352055430412292,-0.3788977265357971,-0.7414190173149109,3.0718483924865723,3.392771005630493,3.247647762298584
55106.45627675,1.2270131862912836,0.8178883790969849,-0.35669243335723877,-0.8422532081604004,4.2903876304626465,1.8658108711242676,2.6678359508514404
55106.466235750006,1.6652241794615728,1.269191026687622,-0.11900848150253296,-1.0714302062988281,5.568693161010742,0.4534524083137512,2.4218380451202393
55106.47619375,2.1999085757233483,1.7297072410583496,0.36449772119522095,-1.309523582458496,5.0742034912109375,-1.2203084230422974,2.071423292160034
55106.48615275,2.8518824492716366,2.303917646408081,0.866060733795166,-1.44053316116333,3.4717981815338135,-2.7827792167663574,1.2758378982543945
55106.496111750006,3.231155759858202,2.6010618209838867,1.2820591926574707,-1.4251909255981445,2.3434762954711914,-2.977473735809326,2.1630988121032715
55106.50606975,3.400622534528876,2.4785022735595703,1.549550175666809,-1.7378591299057007,0.9151652455329895,-2.2577884197235107,3.6579692363739014
55106.516028750004,3.622246359309678,2.437608242034912,1.5279258489608765,-2.200949192047119,-0.913582444190979,-1.5986018180847168,4.355717658996582
55106.525986750006,3.702173242836722,2.526864528656006,1.4258261919021606,-2.2995786666870117,-1.8310539722442627,-3.016970634460449,3.7033040523529053
55106.53594575,3.43432869232802,2.5815446376800537,1.280135989189148,-1.868553638458252,-1.777389407157898,-5.185512065887451,2.08738112449646
55106.545903750004,3.050822468150548,2.639605760574341,1.0116770267486572,-1.1473921537399292,-2.23425030708313,-6.152314186096191,1.244540810585022
55106.55586275001,2.701498390457024,2.413219690322876,1.0499882698059082,-0.609908938407898,-2.855710029602051,-6.367947101593018,0.8923404216766357
55106.56582075,2.2297759076207604,1.641784429550171,1.4872815608978271,-0.25384649634361267,-3.7756102085113525,-6.556587219238281,-0.20082414150238037
55106.575779750005,1.6555756023072732,0.6566796898841858,1.519416332244873,0.03280806541442871,-4.201180934906006,-5.759521484375,0.005790023133158684
55106.58573875,1.6574822239965006,-0.19003480672836304,1.6245262622833252,0.268418550491333,-4.193996906280518,-4.82375431060791,0.2686444818973541
55106.59569675,1.9303902120809753,-0.6291642189025879,1.7540390491485596,0.5038906335830688,-3.230651378631592,-5.27549409866333,-1.4686875343322754
55106.605655750005,2.095168935206736,-1.0009949207305908,1.6065683364868164,0.8981537818908691,-2.1026611328125,-4.14381217956543,-2.271066904067993
55106.61561375,1.9047887794162042,-1.0583322048187256,1.186309814453125,1.0492007732391357,-2.329315423965454,-3.4017333984375,-2.279662847518921
55106.62557275,1.4628261566044087,-0.5416747331619263,0.7289000153541565,1.146801471710205,-2.860260486602783,-3.170536518096924,-2.748464584350586
55106.635530750005,1.7753578211829577,-0.1219283938407898,0.3035016655921936,1.7449686527252197,-3.0076253414154053,-2.1922314167022705,-3.673682928085327
55106.64548975,2.1349670740999227,-0.21259498596191406,-0.2007940411567688,2.114845037460327,-3.3609375953674316,-1.0683914422988892,-3.8301236629486084
55106.65544775,2.16961578603114,-0.5700650215148926,-0.5637882947921753,2.016036033630371,-2.5144529342651367,-0.15114247798919678,-2.769793748855591
55106.665406750006,2.3295912566052417,-0.7623952627182007,-0.9404118061065674,1.9903202056884766,-1.6456623077392578,0.18256445229053497,-2.1117169857025146
55106.67536575,2.404165084374549,-0.6011382937431335,-1.443265438079834,1.8263700008392334,-1.4326655864715576,1.0714833736419678,-2.2330219745635986
55106.68532375,2.550124127555381,-0.46769779920578003,-1.927199363708496,1.6032137870788574,-1.341878056526184,2.3061864376068115,-2.271728038787842
55106.695282750006,2.570541842394875,-0.5845574140548706,-2.064478874206543,1.4155935049057007,-1.7702534198760986,2.6660521030426025,-1.404003381729126
55106.70524075,2.403310425989255,-0.6935462355613708,-1.9449000358581543,1.2297391891479492,-0.9461537003517151,3.2633466720581055,-0.8103604912757874
55106.715199750004,2.3272484429698506,-0.6154569387435913,-1.8682525157928467,1.243756651878357,-0.15847481787204742,3.976905345916748,-0.8128764033317566
55106.72515775001,2.201010374235275,-0.5385918021202087,-1.9271676540374756,0.9167280793190002,0.45395541191101074,4.052041053771973,-0.5201364159584045
55106.73511675,2.0062011239528332,-0.3717350959777832,-1.795931100845337,0.8131958246231079,0.32808244228363037,4.26615571975708,-0.05595143884420395
55106.745074750004,1.806618711507131,-0.05391615629196167,-1.6243650913238525,0.7889247536659241,-0.22677063941955566,4.5289306640625,0.4846411645412445
55106.75503375,1.7394086564527906,0.0059781670570373535,-1.601546287536621,0.6786429286003113,-0.5028930306434631,5.091748237609863,0.8404077887535095
55106.76499275,1.714321934982154,0.008330851793289185,-1.6654231548309326,0.40644311904907227,-0.7206913828849792,5.824848175048828,1.2454471588134766
55106.774950750005,1.5642589441315844,0.014500856399536133,-1.5617157220840454,0.08797597885131836,-0.056227076798677444,5.787210464477539,1.460330605506897
55106.78490975,1.258904579515007,0.024191588163375854,-1.2554762363433838,-0.08963775634765625,0.8088210821151733,5.305706977844238,1.7394368648529053
55106.79486775,1.0969916880231516,0.1394960880279541,-1.0449994802474976,-0.3031628131866455,2.0744409561157227,5.040879726409912,2.035923719406128
55106.804826750005,1.0077840520420804,0.3209483027458191,-0.7570255994796753,-0.5826947093009949,2.686216115951538,4.7795209884643555,2.306305170059204
55106.81478475,0.9322304213702546,0.31248417496681213,-0.46744608879089355,-0.7435733675956726,2.599682331085205,4.205384254455566,2.745677947998047
55106.82474375,0.8516252488808462,0.3293471038341522,-0.2798592448234558,-0.7338084578514099,1.9865870475769043,3.1842403411865234,3.118849277496338
55106.834701750005,1.0559634188835125,0.7230473756790161,-0.09347188472747803,-0.7638875842094421,2.3580844402313232,2.0660688877105713,2.883373498916626
55106.84466075,1.785528604702402,1.4575599431991577,0.18185102939605713,-1.0151658058166504,4.001708507537842,0.626223087310791,2.3162994384765625
55106.85461975,2.5009897889915655,1.996626853942871,0.5387426018714905,-1.4064805507659912,5.181942462921143,-1.082056999206543,1.942470908164978
55106.864577750006,2.933441445980175,2.183709144592285,0.8864485621452332,-1.7466259002685547,4.0171122550964355,-2.481731414794922,1.5843210220336914
55106.87453675,3.159472908852631,2.275184154510498,1.1882755756378174,-1.842228889465332,2.762578248977661,-2.618117094039917,2.464395046234131
55106.884494750004,3.3891704464344454,2.3479318618774414,1.566786289215088,-1.8758659362792969,1.1013983488082886,-2.9161131381988525,3.2318131923675537
55106.89445375001,3.5820231532838087,2.4339892864227295,1.6695199012756348,-2.0296032428741455,-0.8797314763069153,-3.3324761390686035,3.421491861343384
55106.90441175,3.472042514642049,2.450164318084717,1.4807631969451904,-1.9644628763198853,-2.548790216445923,-3.5146830081939697,3.4785757064819336
55106.914370750004,3.2221974790405636,2.4157724380493164,1.2742228507995605,-1.7096655368804932,-3.605107069015503,-3.6397292613983154,3.3573765754699707
55106.92432875001,2.9202010906876,2.21802020072937,1.2480661869049072,-1.4318839311599731,-3.288616895675659,-4.036749839782715,2.596125602722168
55106.93428775,2.517019170649028,1.7735555171966553,1.486461877822876,-0.9901098012924194,-2.1382498741149902,-5.263899326324463,1.01638662815094
55106.944246750005,2.0651863922036715,1.2368441820144653,1.584670066833496,-0.47332027554512024,-1.7869161367416382,-5.861525535583496,-0.17320822179317474
55106.95420475,1.7733695073572509,0.7687430381774902,1.5980393886566162,0.011985957622528076,-2.295423746109009,-5.3196635246276855,-0.5441423654556274
55106.96416375,1.746911984819986,0.18691104650497437,1.710717797279358,0.3003503978252411,-3.3285398483276367,-4.926675319671631,-0.7540014982223511
55106.974121750005,1.8022012116382582,-0.5326465964317322,1.6112715005874634,0.6066473126411438,-3.8792531490325928,-4.374054908752441,-1.0880972146987915
55106.98408075,1.834078008582913,-0.8892914652824402,1.1889920234680176,1.0767083168029785,-4.2186665534973145,-4.074378967285156,-1.7029684782028198
55106.99403875,1.6762812535547011,-0.83479243516922,0.6603383421897888,1.2949879169464111,-3.1882660388946533,-4.30201530456543,-2.3228416442871094
55107.003997750006,1.673361956984291,-0.6412520408630371,0.2474731206893921,1.5256779193878174,-1.908059000968933,-4.044149398803711,-3.0718822479248047
55107.01395675,1.7817639776626457,-0.26603102684020996,-0.14915859699249268,1.755466341972351,-1.3924760818481445,-2.7041900157928467,-3.2085580825805664
55107.02391475,1.8931764875741952,-0.16041409969329834,-0.49053406715393066,1.82147216796875,-0.856634259223938,-1.220149040222168,-3.2282750606536865
55107.033873750006,1.9080541420769124,-0.44457298517227173,-0.7265969514846802,1.7073612213134766,-0.7418325543403625,-0.11193349212408066,-3.16253662109375
55107.04383175,2.1055460855748223,-0.7159742712974548,-0.9704776406288147,1.7259427309036255,-1.4766651391983032,0.655817449092865,-2.2095460891723633
55107.053790750004,2.45223142094268,-0.7978512644767761,-1.2673349380493164,1.9418379068374634,-2.1174705028533936,1.2045782804489136,-1.5669394731521606
55107.063748750006,2.6855253917443624,-0.6280065178871155,-1.6609551906585693,2.014666795730591,-1.7945013046264648,2.2264487743377686,-1.6068289279937744
55107.07370775,2.728492428494255,-0.5741811990737915,-2.02740740776062,1.7333799600601196,-0.9809588193893433,3.1808133125305176,-1.201297640800476
55107.083665750004,2.653307621670051,-0.7364949584007263,-2.142986297607422,1.3802993297576904,-0.673584520816803,3.5197834968566895,-0.8374977707862854
55107.09362475001,2.48634004654786,-0.6389210224151611,-2.122695207595825,1.1259803771972656,-0.5902153253555298,4.271481037139893,-0.6901264190673828
55107.10358375,2.1959705632778403,-0.4891929626464844,-1.9165351390838623,0.9538710713386536,-0.5652637481689453,4.445467948913574,-0.26547616720199585
55107.113541750005,1.8508400291979719,-0.3691377639770508,-1.6425845623016357,0.7689356803894043,-0.5475273728370667,4.493967533111572,0.2538469135761261
55107.12350075,1.648273514397224,-0.1415940523147583,-1.5071229934692383,0.6521786451339722,-0.6287143230438232,4.337520122528076,0.7052847743034363
55107.13345875,1.5708419184571965,-0.025632798671722412,-1.4871635437011719,0.5052047967910767,-0.6692625284194946,4.427128791809082,0.9096280932426453
55107.143417750005,1.4970860023238957,0.05178612470626831,-1.4730242490768433,0.262267529964447,-0.37993717193603516,5.006366729736328,1.181114673614502
55107.15337575,1.3689315537241653,0.05790719389915466,-1.364293098449707,-0.09656447172164917,0.30776798725128174,4.989962577819824,1.1452908515930176
55107.16333475,1.1775101424263856,0.03653648495674133,-1.106744647026062,-0.4003891944885254,1.5643823146820068,5.066380977630615,1.4092073440551758
55107.173292750005,1.046060425186652,0.07573983073234558,-0.833791196346283,-0.6271348595619202,2.5414793491363525,4.670287609100342,1.325261116027832
55107.18325175,1.067711216234297,0.20537295937538147,-0.5879141092300415,-0.8672866821289062,3.136284112930298,3.9842772483825684,1.3763322830200195
55107.19321075,0.9451924324339918,0.21829628944396973,-0.33250951766967773,-0.8574222326278687,2.6661081314086914,2.422717809677124,1.4162843227386475
55107.203168750006,0.8813783074031019,0.32387596368789673,-0.13884419202804565,-0.8078702688217163,2.4976606369018555,0.9673359990119934,1.4637668132781982
55107.21312775,1.1355722959805248,0.6630594730377197,0.16165101528167725,-0.9076042771339417,2.448023796081543,0.06941739469766617,1.5330787897109985
55107.22308575,1.8451209302960871,1.1941947937011719,0.49276047945022583,-1.3174054622650146,2.8365910053253174,1.3926104307174683,2.5421335697174072
55107.233044750006,2.5931668705113493,1.6376768350601196,0.8659518957138062,-1.8145678043365479,3.336639404296875,1.9693139791488647,3.86409068107605
55107.24300275,3.3107179602523957,1.8855396509170532,1.4520716667175293,-2.3015389442443848,3.6241891384124756,-0.16622355580329895,3.779283046722412
55107.252961750004,3.4364740331276655,1.8780337572097778,1.876643419265747,-2.1818690299987793,3.165874719619751,-2.5843777656555176,2.647444725036621
55107.26291975001,3.2735495207095195,2.2763259410858154,1.6936404705047607,-1.6328039169311523,1.3055667877197266,-4.306405067443848,1.6977005004882812
55107.27287875,3.346775345950771,2.781965732574463,1.2337260246276855,-1.3926564455032349,-0.6066656708717346,-5.322907447814941,1.365612268447876
55107.282837750005,3.3021751868831544,2.907736301422119,0.8571701049804688,-1.3094617128372192,-2.0492846965789795,-5.305195331573486,1.3649168014526367
55107.29279575001,2.9530538450257464,2.493922233581543,0.8855441212654114,-1.3102253675460815,-3.136317729949951,-4.977724552154541,1.7317627668380737
55107.30275475,2.625856037076839,1.8577003479003906,1.3803150653839111,-1.2404836416244507,-3.3165178298950195,-4.513890266418457,1.9489392042160034
55107.312712750005,2.432048651516925,1.3205910921096802,1.795018196105957,-0.9740685224533081,-3.1431453227996826,-4.861308574676514,1.3634499311447144
55107.32267175,2.034658308856232,0.7195299863815308,1.8116477727890015,-0.5831323862075806,-2.6990931034088135,-5.498392105102539,0.12172401696443558
55107.33262975,1.6474416950481536,0.19456970691680908,1.634963870048523,-0.05567684769630432,-2.472599506378174,-5.395133972167969,-0.6776311993598938
55107.342588750005,1.4979756923603373,-0.23631948232650757,1.4442778825759888,0.319602370262146,-2.8318305015563965,-4.999881267547607,-1.0821013450622559
55107.35254675,1.5106749201904217,-0.5126120448112488,1.2452013492584229,0.6847198009490967,-3.2238969802856445,-4.269390106201172,-1.162091612815857
55107.36250575,1.5960943729223975,-0.5133991241455078,0.9227070808410645,1.1968919038772583,-3.4893689155578613,-4.201573848724365,-1.3636318445205688
55107.372464750006,1.707909460614858,-0.4379456043243408,0.43116575479507446,1.5935038328170776,-2.807687520980835,-4.163560390472412,-1.7019933462142944
55107.38242275,1.970151253540817,-0.32424259185791016,-0.12911540269851685,1.9389925003051758,-1.8726251125335693,-3.3333325386047363,-1.9240583181381226
55107.39238175,2.1228992427861293,-0.19132250547409058,-0.5946054458618164,2.028926134109497,-1.3611069917678833,-1.4897682666778564,-1.835861086845398
55107.402339750006,1.9722365923250023,-0.28728312253952026,-0.8844738006591797,1.7392215728759766,-0.633246123790741,0.08863136917352676,-2.0022435188293457
55107.41229875,1.9193973940817106,-0.556826114654541,-1.000636100769043,1.54037606716156,0.1343384087085724,0.8521777391433716,-2.309175968170166
55107.422256750004,2.17580849198031,-0.8242810368537903,-1.0724425315856934,1.7042800188064575,-0.012293973937630653,1.1444047689437866,-1.724299669265747
55107.43221575001,2.48086501885653,-0.8541367053985596,-1.2497925758361816,1.9654923677444458,-0.7402216792106628,1.1103525161743164,-1.2081795930862427
55107.44217454167,2.660606731183303,-0.6430966854095459,-1.5940436124801636,2.030832290649414,-0.9760432839393616,1.4697983264923096,-1.068462610244751
55107.45213354167,2.7418940061242556,-0.5121468901634216,-1.9928386211395264,1.8122589588165283,-0.9407657384872437,2.381136178970337,-1.164749026298523
55107.46209254167,2.7108010546728343,-0.5323242545127869,-2.271843671798706,1.3797824382781982,-0.9372033476829529,3.245877981185913,-0.7651770114898682
55107.47205054167,2.679531823334085,-0.5631219744682312,-2.3950300216674805,1.061421513557434,-1.4152045249938965,4.276352882385254,-0.3236590325832367
55107.48200954167,2.4380102257906677,-0.5628248453140259,-2.253502130508423,0.7408442497253418,-1.2935059070587158,4.736050128936768,0.23059915006160736
55107.49196754167,1.9811910216084225,-0.5734787583351135,-1.8173518180847168,0.5417308807373047,-0.643168032169342,4.843921184539795,0.5888624787330627
55107.50192654167,1.5693551332586726,-0.4441925287246704,-1.4346853494644165,0.455243319272995,-0.2251431941986084,4.598525524139404,0.7864125967025757
55107.51188454167,1.2918308022694729,-0.2562543749809265,-1.2089707851409912,0.37623152136802673,-0.04693217948079109,4.586371421813965,0.6931686401367188
55107.52184354167,1.0309605091626366,-0.025328397750854492,-1.009197473526001,0.20918533205986023,0.5093953013420105,5.119659423828125,0.9074116945266724
55107.53180154167,0.8436690328935547,0.04163658618927002,-0.8426034450531006,-0.007954001426696777,0.09309636801481247,3.9291930198669434,0.5414789319038391
55107.54176054167,0.7846439654534505,-0.006425231695175171,-0.774794340133667,-0.12376832962036133,1.968567967414856,5.49828577041626,2.1423654556274414
55107.55171954167,0.8370403831492258,0.03537467122077942,-0.8114452362060547,-0.2023409605026245,2.0678913593292236,5.553182125091553,2.26371693611145
55107.56167754167,1.1865515983914363,0.4186360538005829,-0.6409361362457275,-0.9065591096878052,3.292562484741211,5.1419196128845215,1.5839053392410278
55107.57163654167,0.6260652566346063,-0.13412350416183472,-0.3186261057853699,-0.5219635963439941,3.5896425247192383,3.376307249069214,2.045811176300049
55107.58159454167,0.7073771317366407,0.18892040848731995,-0.13566970825195312,-0.6680458188056946,3.6342694759368896,1.2616163492202759,1.602277159690857
55107.59155354167,1.868679367321434,1.5157803297042847,0.360992968082428,-1.0315312147140503,3.176961660385132,-0.16302676498889923,0.5194675326347351
55107.60151154167,2.510709394185736,2.0518529415130615,0.8354289531707764,-1.1813634634017944,3.939363479614258,0.11662951111793518,0.569135308265686
55107.61147054167,2.613878116719278,1.709996223449707,1.2249972820281982,-1.551661491394043,4.055928707122803,0.8028765916824341,2.4522602558135986
55107.62142854167,3.012495585545158,1.4383748769760132,1.6482120752334595,-2.071135997772217,2.9137158393859863,-0.8042479157447815,2.8297815322875977
55107.63138754167,3.2552270302516604,1.6151589155197144,1.9131476879119873,-2.0802958011627197,1.9516716003417969,-1.3495128154754639,2.9392096996307373
55107.64134654167,3.507502923328347,2.3883328437805176,1.7623873949050903,-1.8688054084777832,1.0625272989273071,-2.2423853874206543,2.2050907611846924
55107.65130454167,3.737050376828112,2.9981441497802734,1.3875290155410767,-1.7468372583389282,-1.679053544998169,-4.166738510131836,1.6024374961853027
55107.66126354167,3.2162335338339187,2.7136616706848145,0.9459807872772217,-1.4440633058547974,-2.8782918453216553,-5.580516815185547,2.015578269958496
55107.67122154167,3.0153268227698224,2.6446471214294434,1.1077297925949097,-0.9332588911056519,-2.5040769577026367,-4.441486835479736,0.5692795515060425
55107.68118054167,2.6867747506762654,2.0737974643707275,1.421334981918335,-0.9475914239883423,-3.4443182945251465,-3.967590808868408,1.2282664775848389
55107.69113854167,2.351415814519041,0.6169533133506775,1.917402744293213,-1.2132978439331055,-2.9374568462371826,-5.210579872131348,1.1450115442276
55107.70109754167,2.435015779356317,0.3179512619972229,2.3549351692199707,-0.5314971208572388,-2.5956175327301025,-5.299880027770996,0.05785815045237541
55107.71105554167,1.9550460307872872,0.030355453491210938,1.9471027851104736,-0.17341935634613037,-2.5826683044433594,-5.230933666229248,-0.7362978458404541
55107.72101454167,1.6877410883500312,-0.4363698363304138,1.6294734477996826,-0.05355025827884674,-2.9171812534332275,-5.446524620056152,-1.2910289764404297
55107.73097354167,1.4060223273531687,-0.5733891725540161,1.1824134588241577,0.5000220537185669,-4.249874591827393,-5.049650192260742,-1.6673613786697388
55107.74093154167,1.2921000409952037,-0.5426291227340698,0.6947154402732849,0.944693922996521,-5.091326713562012,-4.731162071228027,-1.9634772539138794
55107.75089054167,1.4053676955235257,-0.5304293036460876,0.40234100818634033,1.2376691102981567,-4.23897123336792,-4.853030681610107,-2.738874912261963
55107.76084854167,1.5100466709041733,-0.33876579999923706,0.05155158042907715,1.4706532955169678,-2.963299512863159,-4.489691257476807,-3.578941583633423
55107.77080754167,1.6252099590817966,-0.06929439306259155,-0.3198302984237671,1.5919215679168701,-1.3468841314315796,-3.6104648113250732,-3.9974582195281982
55107.78076554167,1.8002929932248373,-0.03132426738739014,-0.6318166255950928,1.6854914426803589,0.41195544600486755,-1.5722090005874634,-3.3613579273223877
55107.79072454167,1.8854769235531694,-0.2113003134727478,-0.9097920060157776,1.6378809213638306,0.8648478388786316,0.11453467607498169,-3.13938307762146
55107.80068254167,2.0788593784772185,-0.4046017527580261,-1.2096588611602783,1.6415477991104126,0.1604008972644806,0.9037303924560547,-2.5879929065704346
55107.81064154167,2.726531206352455,-0.668950080871582,-1.6560709476470947,2.0600745677948,-0.7884386777877808,1.1773300170898438,-1.4165323972702026
55107.82060054167,3.5338945709360425,-0.44201236963272095,-2.489375114440918,2.469017505645752,-1.417484998703003,2.4309873580932617,-0.9741163849830627
55107.83055854167,4.071277631476188,-0.09897083044052124,-3.365875244140625,2.288316011428833,-6.043102264404297,3.602815628051758,1.1382838487625122
55107.84051754167,3.7659952238336336,-0.359075665473938,-3.3624885082244873,1.6575450897216797,-8.041399955749512,0.5513631701469421,2.6363637447357178
55107.85047554167,3.319340316328998,-0.13122349977493286,-2.849923849105835,1.696683406829834,-3.3096811771392822,3.5823421478271484,1.4013843536376953
55107.86043454167,3.584873504864066,0.025350868701934814,-3.4436678886413574,0.9959050416946411,-2.489292621612549,5.849909782409668,-0.7756862044334412
55107.87039254167,3.241437413751402,-0.46307075023651123,-3.073852777481079,-0.9186463356018066,4.699461936950684,6.036125183105469,-0.6265145540237427
55107.88035154167,1.2585745108156403,-0.4402124583721161,-0.9154091477394104,-0.7431344985961914,10.199544906616211,6.543309688568115,-1.234453797340393
55107.89030954167,0.720493550322071,0.06409895420074463,-0.5852454304695129,-0.4153192341327667,9.492137908935547,8.422654151916504,-0.3769569993019104
55107.90026854167,0.9615501544945557,-0.5549617409706116,-0.7597381472587585,0.19847950339317322,5.237021446228027,10.063348770141602,1.6343791484832764
55107.91022754167,0.965651647603921,-0.3378499448299408,-0.2684875726699829,0.8638604879379272,1.8257091045379639,8.4473876953125,1.7253929376602173
55107.92018554167,1.6378130778584983,0.1286192536354065,0.0533713698387146,1.6318824291229248,-1.8860143423080444,6.005099773406982,4.296565532684326
55107.93014454167,2.2620272045614715,0.5101988911628723,-0.28784751892089844,2.184858798980713,-2.937988519668579,6.827707767486572,2.7026913166046143
55107.94010254167,2.0954559142080686,1.3063242435455322,-1.1942472457885742,1.1217067241668701,-1.5773457288742065,6.219291687011719,0.9609546661376953
55107.95006154167,1.955025419491219,0.9824670553207397,-1.6890270709991455,0.0637999176979065,0.5362110733985901,3.9896240234375,-0.794430136680603
55107.96001954167,2.0286854738654947,1.377572774887085,-1.385947823524475,-0.5449831485748291,1.6634571552276611,1.3923147916793823,-2.9696033000946045
55107.96997854167,2.2818045483696956,2.0495970249176025,-0.15116029977798462,-0.9914305806159973,1.7815220355987549,-1.461949348449707,-3.9265666007995605
55107.97993654167,2.646028171282712,1.957329273223877,1.0531715154647827,-1.4356729984283447,1.8197468519210815,-0.7622615694999695,-0.7388508319854736
55107.98989554167,3.0989219712156753,1.7090227603912354,1.8774092197418213,-1.7770462036132812,2.1500673294067383,0.9182018637657166,2.475895404815674
55107.99985454167,3.9195250182047494,1.716849684715271,2.432755470275879,-2.5488829612731934,2.7876431941986084,0.13109934329986572,2.814460515975952
55108.00981254167,3.692821252069074,0.9785496592521667,2.102034091949463,-2.874164581298828,1.7960293292999268,-0.1158265620470047,3.3625383377075195
55108.01977154167,2.9208594281323963,1.2383650541305542,1.0708746910095215,-2.4189045429229736,0.3549652695655823,-0.4493304491043091,3.768789052963257
55108.02972954167,2.9181933354595953,2.023641586303711,0.668154239654541,-1.9935638904571533,-0.5359899401664734,-1.1371655464172363,3.95965576171875
55108.03968854167,2.4815737968636937,1.9210641384124756,0.42512983083724976,-1.5122783184051514,-1.0381697416305542,-2.822373628616333,4.225638389587402
55108.04964654167,2.3807496165343762,2.142460584640503,0.5311845541000366,-0.8920058012008667,-1.556847095489502,-3.77181077003479,4.49614953994751
55108.05960554167,2.4510726671013034,2.2980270385742188,0.8325991630554199,-0.1833237111568451,-2.820164203643799,-3.4798736572265625,4.528329849243164
55108.06956354167,1.7804205972239329,1.583029866218567,0.8109059929847717,0.07965812087059021,-4.436129570007324,-3.1977851390838623,4.273719310760498
55108.07952254167,0.9563156738413964,0.6661328673362732,0.6745750904083252,0.12551939487457275,-5.97889518737793,-3.2629172801971436,3.580476760864258
55108.08948154167,0.7076398567288006,0.14596045017242432,0.6403899192810059,0.26334476470947266,-6.690526485443115,-3.476534843444824,2.5077877044677734
55108.09943954167,0.7912806852583183,-0.24418771266937256,0.6723834276199341,0.3382277488708496,-5.767767429351807,-3.1486029624938965,1.613405466079712
55108.10939854167,0.9853401289387331,-0.6962460279464722,0.6138628125190735,0.3306192457675934,-4.897672653198242,-2.337681531906128,0.9926928877830505
55108.11935654167,1.178943200593737,-1.0075899362564087,0.5240195989608765,0.3163432478904724,-4.098753452301025,-1.556599497795105,0.35324394702911377
55108.12931554167,1.4458378119814965,-1.1683080196380615,0.7628260254859924,0.37894564867019653,-3.148776054382324,-2.1873748302459717,-1.0015045404434204
55108.13927354167,1.8543436157789897,-1.3555481433868408,1.2241474390029907,0.3202226161956787,-0.6637433171272278,-2.252843141555786,-1.1397923231124878
55108.14923254167,1.9380352066846558,-1.3093819618225098,1.3853709697723389,0.34963783621788025,1.979317545890808,-1.8059678077697754,-0.05706506967544556
55108.15919054167,1.2661540371633333,-0.8353585004806519,0.9463651180267334,0.09856614470481873,2.8628289699554443,-1.6408737897872925,-0.0370703749358654
55108.16914954167,0.6235893486227234,-0.4363427758216858,0.40162867307662964,0.19277724623680115,3.0868117809295654,-0.969523012638092,0.08622972667217255
55108.17910854167,0.825194304990002,-0.5969449281692505,0.2518596649169922,0.5110470652580261,2.6310465335845947,-0.48541972041130066,0.6910449862480164
55108.18906654167,0.9873381229701595,-0.7141304016113281,0.12284308671951294,0.6706444025039673,1.4882614612579346,-0.32961973547935486,1.070244550704956
55108.19902554167,1.0282126644899345,-0.5052565336227417,-0.07249891757965088,0.892569899559021,0.4641580581665039,0.03393636643886566,0.4310353994369507
55108.20898354167,1.1655721152808354,-0.46974384784698486,-0.2863648533821106,1.0275671482086182,-0.0030879583209753036,0.6876648664474487,-0.2591869831085205
55108.21894254167,1.2194093826364978,-0.7604129314422607,-0.40840715169906616,0.8613564968109131,0.4654095470905304,1.2997016906738281,-0.25651025772094727
55108.22890054167,1.229623697807623,-0.8730505704879761,-0.5125566124916077,0.6978845596313477,1.1651908159255981,1.5737276077270508,-0.03779070824384689
55108.23885954167,1.1739990502999684,-0.8004516363143921,-0.680590808391571,0.5237815380096436,1.6311347484588623,1.920627474784851,-0.07204128056764603
55108.24881754167,1.1551833241947185,-0.7600867748260498,-0.7524681091308594,0.436472624540329,1.4722579717636108,2.3708391189575195,-0.2719096541404724
55108.25877654167,1.1361831348567955,-0.7770933508872986,-0.6983778476715088,0.4464374780654907,1.5352705717086792,2.7243900299072266,-0.16357052326202393
55108.26873554167,1.0281460459036595,-0.7350859642028809,-0.5502224564552307,0.4625885486602783,1.7439584732055664,3.096226453781128,0.07811134308576584
55108.27869354167,0.8161236228267292,-0.5987022519111633,-0.41387903690338135,0.3692120313644409,1.7175040245056152,3.529069662094116,0.2188313603401184
55108.28865254167,0.6033921529765853,-0.45609593391418457,-0.29817813634872437,0.25913006067276,1.524827003479004,3.813138961791992,0.32655540108680725
55108.29861054167,0.3337819876523383,-0.2534329891204834,-0.18752384185791016,0.10962182283401489,1.0888978242874146,3.7889723777770996,0.24176935851573944
55108.30856954167,0.20324065851346046,0.14559543132781982,-0.13293403387069702,-0.04936879873275757,0.7534576058387756,3.485154390335083,0.24724136292934418
55108.31852754167,0.5382995021539259,0.5050686597824097,-0.1826772689819336,0.036069631576538086,0.4494578242301941,3.2527916431427,0.3198090195655823
55108.32848654167,0.7773204191081432,0.6590235233306885,-0.3923211097717285,0.1264878511428833,0.2688518166542053,2.7396044731140137,0.24779820442199707
55108.33844554167,0.9084980866149095,0.6329255104064941,-0.6180716156959534,0.20678865909576416,0.16428159177303314,1.8147926330566406,0.35416609048843384
55108.34840354167,1.0372368074939855,0.6186180114746094,-0.7439822554588318,0.37371426820755005,-0.14317715167999268,0.9315407276153564,0.34926748275756836
55108.35836254167,1.1695802362098329,0.7459145188331604,-0.7276319265365601,0.5311132073402405,-0.17092210054397583,0.5371655225753784,0.19721412658691406
55108.36832054167,1.0371452615383276,0.71457439661026,-0.5641078948974609,0.4968259334564209,-0.15739937126636505,0.2987372577190399,0.22849375009536743
55108.37827954167,0.7515316027373699,0.5168976187705994,-0.4461931586265564,0.313892126083374,-0.5891273617744446,0.33574849367141724,0.48003706336021423
55108.38823754167,0.6626649111154046,0.49103671312332153,-0.3951524496078491,0.20460271835327148,-0.9848592877388,0.5595078468322754,0.7369884252548218
55108.39819654167,0.6523807931905461,0.5641618967056274,-0.2920605540275574,0.1484004259109497,-1.199278712272644,0.7741055488586426,1.1695666313171387
55108.40815454167,0.5561910662692691,0.50784832239151,-0.19089871644973755,0.12245923280715942,-1.4313836097717285,0.8639946579933167,1.6237610578536987
55108.41811354167,0.49610152861003776,0.4447479844093323,-0.15446430444717407,0.15638649463653564,-1.5776106119155884,0.8416725397109985,1.8130959272384644
55108.42807254167,0.5098179907299644,0.43587344884872437,-0.14189419150352478,0.22314739227294922,-1.518168568611145,0.9035263061523438,1.7742564678192139
55108.4380305,0.4596289321487014,0.37697505950927734,-0.11861100792884827,0.23469126224517822,-1.162650227546692,0.8444967269897461,1.701353669166565
55108.447989500004,0.29523717281981715,0.21359384059906006,-0.05246901512145996,0.19695091247558594,-0.26246294379234314,0.7904984951019287,1.7450007200241089
55108.45794750001,0.22715641256329705,0.037840962409973145,0.05865558981895447,0.2161657214164734,0.6102476716041565,0.7484346032142639,1.8384160995483398
55108.4679065,0.2859379882173655,-0.030930936336517334,0.1888197958469391,0.21248739957809448,0.9974412322044373,0.874111533164978,1.9340922832489014
55108.477864500004,0.39171480427499894,-0.020183980464935303,0.3577607274055481,0.15824145078659058,1.2361003160476685,1.2149085998535156,2.2015507221221924
55108.48782350001,0.5283421655184222,-0.021323442459106445,0.5136903524398804,0.12170857191085815,1.3333171606063843,1.7753416299819946,2.491715669631958
55108.4977815,0.5363328130726555,-0.07445597648620605,0.5284521579742432,0.05336207151412964,1.2526240348815918,2.2559916973114014,2.5915541648864746
55108.507740500005,0.451359183416564,-0.19026720523834229,0.4088481664657593,0.01914888620376587,1.330754280090332,2.344024896621704,2.4327986240386963
55108.5176995,0.33754395168001733,-0.2502399682998657,0.21109285950660706,0.08219295740127563,1.2322375774383545,2.176316738128662,2.048140525817871
55108.5276575,0.1965718628893329,-0.137162983417511,0.05700498819351196,0.12875264883041382,1.1648426055908203,2.039621591567993,1.649076223373413
55108.537616500005,0.183286972740117,-0.019877612590789795,0.11149880290031433,0.1441076397895813,1.465005874633789,1.9662946462631226,1.5080931186676025
55108.5475745,0.3507399569291355,-0.04728192090988159,0.31232014298439026,0.15244364738464355,1.9273474216461182,2.1343159675598145,1.502050757408142
55108.5575335,0.4834896234481754,-0.07402569055557251,0.4602339565753937,0.12832427024841309,2.2460758686065674,2.3289408683776855,1.4078119993209839
55108.567491500005,0.5474684454929516,-0.09046071767807007,0.523968517780304,0.1303669810295105,2.5418972969055176,2.542954206466675,1.3700579404830933
55108.5774505,0.5309209042113621,-0.0723840594291687,0.4869893789291382,0.19869297742843628,2.4988365173339844,2.737976551055908,1.1222022771835327
55108.5874085,0.4039615831708859,0.054044485092163086,0.3241412937641144,0.23493951559066772,2.034421920776367,2.9480903148651123,0.7623130679130554
55108.597367500006,0.3531947351369263,0.1470240354537964,0.1624279022216797,0.27703362703323364,1.2986489534378052,3.092313289642334,0.5492334961891174
55108.6073265,0.37969338065244074,0.2086924910545349,0.0976567268371582,0.3017907738685608,0.5386789441108704,3.098616361618042,0.44495075941085815
55108.617284500004,0.437490685906229,0.25640183687210083,0.1273840367794037,0.3308013081550598,0.2634243071079254,2.9304497241973877,0.37661629915237427
55108.62724350001,0.48356593034459416,0.25002792477607727,0.19197791814804077,0.3666967749595642,0.6279971599578857,2.6347763538360596,0.2644506096839905
55108.6372015,0.5170657486381692,0.2520543932914734,0.20741784572601318,0.40100300312042236,1.1744192838668823,2.312589645385742,0.14030009508132935
55108.647160500004,0.5416433438479539,0.2802082300186157,0.22805440425872803,0.40354931354522705,1.5746556520462036,2.087021589279175,0.16979247331619263
55108.65711850001,0.5704061084406883,0.30023452639579773,0.32611292600631714,0.3589884638786316,1.8883395195007324,2.144973039627075,0.31032395362854004
55108.6670775,0.5572542137494242,0.26643848419189453,0.4180023670196533,0.2545914649963379,2.151587724685669,2.3756189346313477,0.3908270299434662
55108.677035500004,0.42515860947950823,0.13073092699050903,0.3901076316833496,0.107169508934021,2.2351574897766113,2.7031807899475098,0.3523327708244324
55108.6869945,0.2553790168945165,-0.0046350061893463135,0.2550000548362732,-0.013112246990203857,1.7786965370178223,2.9708564281463623,0.2652444839477539
55108.6969535,0.14595132503819494,-0.05278065800666809,0.1100582480430603,-0.08001983165740967,1.071488618850708,3.0541234016418457,0.3090258538722992
55108.706911500005,0.06762058127811521,-0.026847779750823975,0.026658296585083008,-0.0560452938079834,0.5168253183364868,2.997760534286499,0.46958568692207336
55108.7168705,0.06280249342851997,0.04840087890625,-0.03636002540588379,-0.016716957092285156,0.7707754373550415,2.8622894287109375,0.4677753746509552
55108.7268285,0.1429925039587147,0.10563811659812927,-0.09370934963226318,-0.022494494915008545,1.724518060684204,2.6837117671966553,0.22847862541675568
55108.736787500005,0.16260307410019442,0.10670128464698792,-0.11225217580795288,-0.04953831434249878,2.5760011672973633,2.380455493927002,0.08383817225694656
55108.7467455,0.11436251028391577,0.10736176371574402,-0.037382423877716064,-0.012441456317901611,2.538123846054077,2.095388174057007,0.33420008420944214
55108.7567045,0.22100405986731358,0.1865609884262085,0.09314894676208496,0.07321929931640625,2.3335916996002197,2.0047919750213623,0.3722686171531677
55108.766662500006,0.32700544241463864,0.27584904432296753,0.11776381731033325,0.13027489185333252,1.8479477167129517,2.0994162559509277,0.1870497614145279
55108.7766215,0.21259081841347735,0.18891207873821259,-0.08417564630508423,0.04920917749404907,1.0885229110717773,2.1884844303131104,0.1034480556845665
55108.786580500004,0.32164815470283625,0.10527688264846802,-0.30381840467453003,0.008287966251373291,0.33148735761642456,2.1605734825134277,0.12506920099258423
55108.796538500006,0.42847093202562475,0.17955511808395386,-0.38876527547836304,-0.014451980590820312,-0.17073021829128265,2.078636884689331,-0.0128202298656106
55108.8064975,0.4298668716865833,0.21587979793548584,-0.36852043867111206,-0.048725008964538574,-0.13236606121063232,2.245622158050537,-0.17549702525138855
55108.816455500004,0.3463789282305437,0.16758881509304047,-0.28206127882003784,-0.1110575795173645,0.5060058832168579,2.123788595199585,-0.4073305130004883
55108.82641450001,0.2523228049307611,0.11391706764698029,-0.1902296543121338,-0.12042582035064697,1.087724208831787,1.5154353380203247,-0.3424426019191742
55108.8363725,0.1762361080159074,0.16111202538013458,-0.07094419002532959,0.008306801319122314,0.9613939523696899,0.7872998714447021,-0.1683344542980194
55108.846331500004,0.4410610724424356,0.4106200337409973,0.07216274738311768,0.1439395546913147,0.6879874467849731,0.4850047528743744,0.16091695427894592
55108.85628950001,0.5936978095849977,0.5671378374099731,0.11246985197067261,0.13484174013137817,0.818833589553833,0.735973596572876,0.40743884444236755
55108.8662485,0.44925759915662533,0.4379068613052368,-0.06993019580841064,-0.07197040319442749,1.4763835668563843,1.0955557823181152,0.13168279826641083
55108.876207500005,0.4524382287701814,0.13030000030994415,-0.30881303548812866,-0.3039025664329529,2.102407217025757,1.7100021839141846,-0.30182209610939026
55108.8861655,0.6083304066230593,-0.08731948584318161,-0.41409945487976074,-0.43699294328689575,2.229490041732788,1.8305273056030273,-0.548653781414032
55108.8961245,0.49761170455253934,-0.06137221306562424,-0.3009045720100403,-0.39154475927352905,1.69680655002594,1.6736185550689697,-0.061455558985471725
55108.906082500005,0.14622973378858733,0.12995579838752747,0.013981223106384277,-0.06556791067123413,0.5495627522468567,1.5940302610397339,0.5133933424949646
55108.9160415,0.45686514751764423,0.34798917174339294,0.22765153646469116,0.1892196536064148,-0.011121584102511406,1.624417781829834,0.4087958335876465
55108.9259995,0.4864161293898779,0.36348506808280945,0.1890324354171753,0.26219457387924194,-0.10277213901281357,1.380316972732544,0.00874296948313713
55108.935958500006,0.3004312539867109,0.22554439306259155,-0.11267930269241333,0.16337698698043823,0.06021811068058014,1.3778561353683472,-0.18103516101837158
55108.9459175,0.4115314343728262,0.20051471889019012,-0.3481539487838745,0.08911114931106567,0.1416618376970291,1.2683475017547607,-0.4261402487754822
55108.9558755,0.3505798834951168,0.19414463639259338,-0.29056185483932495,-0.02806997299194336,0.07651818543672562,1.0508606433868408,-0.3202173113822937
55108.965834500006,0.11177717588337038,0.08970136940479279,-0.022887468338012695,-0.06264156103134155,0.0007696305401623249,0.8421058654785156,-0.0014798239571973681
55108.9757925,0.20506054795785295,0.14832627773284912,0.08602768182754517,-0.1124650239944458,-0.07776472717523575,0.7574124336242676,0.06405520439147949
55108.985751500004,0.30360998937454564,0.21261607110500336,-0.026516377925872803,-0.2151053547859192,-0.20177854597568512,0.9536543488502502,-0.07414181530475616
55108.995709500006,0.444202206947311,0.1540144383907318,-0.21047556400299072,-0.35957640409469604,-0.4803345203399658,1.108252763748169,-0.19368977844715118
55109.0056685,0.5620241620659876,0.07605668157339096,-0.32881200313568115,-0.4494098424911499,-0.7133955359458923,1.131960153579712,-0.047182098031044006
55109.015626500004,0.49976804554900206,0.07521113753318787,-0.31397002935409546,-0.38148945569992065,-0.9182674884796143,1.0044642686843872,0.11868791282176971
55109.02558550001,0.4388365532365212,0.18147458136081696,-0.17730355262756348,-0.35806137323379517,-1.0198098421096802,0.7648361921310425,0.3073592782020569
55109.0355445,0.430727331731294,0.25049009919166565,-0.028896689414978027,-0.3492072820663452,-1.124643087387085,0.559021532535553,0.38002389669418335
55109.045502500005,0.45790371654208595,0.2844522297382355,-0.007580876350402832,-0.3587551712989807,-1.328768253326416,0.41628965735435486,0.23218651115894318
55109.0554615,0.4886976502160828,0.27017223834991455,-0.12457144260406494,-0.38770389556884766,-1.6373624801635742,0.2447001338005066,0.059105392545461655
55109.0654195,0.5469121983311723,0.23711879551410675,-0.2850477695465088,-0.4020390510559082,-1.8659279346466064,0.03995151445269585,-0.049087658524513245
55109.075378500005,0.6147641451770887,0.24575750529766083,-0.38171470165252686,-0.4145263433456421,-1.855700135231018,-0.21652594208717346,-0.1550440788269043
55109.0853365,0.659377425819911,0.28250551223754883,-0.39360517263412476,-0.4472630023956299,-1.6486839056015015,-0.48616302013397217,-0.2431052327156067
55109.0952955,0.6812918515272078,0.31581032276153564,-0.3203858733177185,-0.5116398334503174,-1.4564975500106812,-0.7625381946563721,-0.2497549206018448
55109.105253500005,0.7066530505450446,0.32106727361679077,-0.20572364330291748,-0.5949387550354004,-1.2797703742980957,-1.0580778121948242,-0.26088958978652954
55109.1152125,0.7340950196891737,0.31428101658821106,-0.14987272024154663,-0.6462670564651489,-1.2743887901306152,-1.3080954551696777,-0.38014546036720276
55109.1251715,0.7593932234530735,0.31604647636413574,-0.1964501142501831,-0.6619668006896973,-1.5978443622589111,-1.5170217752456665,-0.49602171778678894
55109.135129500006,0.7903598984110566,0.3277997076511383,-0.2735525965690613,-0.6651203632354736,-2.091853141784668,-1.6558916568756104,-0.5352810025215149
55109.1450885,0.8172489895979145,0.3553937077522278,-0.31436264514923096,-0.665407657623291,-2.5359010696411133,-1.7734339237213135,-0.5874174237251282
55109.155046500004,0.840981281336158,0.3762265741825104,-0.3172871470451355,-0.6819325089454651,-2.707733631134033,-1.915818691253662,-0.6514929533004761
55109.16500550001,0.8481794432652017,0.3907608985900879,-0.2870844006538391,-0.6959143877029419,-2.668795585632324,-2.0883893966674805,-0.7066036462783813
55109.1749635,0.8632872282899278,0.4250355362892151,-0.24511677026748657,-0.7103009223937988,-2.5348470211029053,-2.3036651611328125,-0.7755426168441772
55109.184922500004,0.8737010235989989,0.45895469188690186,-0.20393359661102295,-0.7149301767349243,-2.4347922801971436,-2.4549002647399902,-0.7825627326965332
55109.19488050001,0.8661435018048298,0.4654833674430847,-0.16053208708763123,-0.7125722765922546,-2.384225606918335,-2.5063202381134033,-0.7505986094474792
55109.2048395,0.8641512501932707,0.4554166793823242,-0.12858986854553223,-0.7230613231658936,-2.350198268890381,-2.5788321495056152,-0.7378383278846741
55109.214798500005,0.8641207099008552,0.44625645875930786,-0.10882124304771423,-0.7319273948669434,-2.3385913372039795,-2.675801992416382,-0.7639272809028625
55109.2247565,0.8742043667867266,0.47353416681289673,-0.09142011404037476,-0.7291371822357178,-2.2938477993011475,-2.926377773284912,-0.7709622979164124
55109.2347155,0.8847389229137217,0.5323783159255981,-0.05832529067993164,-0.7042261362075806,-2.0297048091888428,-3.1347854137420654,-0.8997717499732971
55109.244673500005,0.9133992286671787,0.6174452304840088,-0.015130162239074707,-0.6729269027709961,-1.8828204870224,-3.544358491897583,-0.9674245715141296
55109.2546325,0.8838126403917078,0.6797463297843933,0.017572999000549316,-0.5645891427993774,-1.7938809394836426,-4.032403945922852,-1.1003869771957397
55109.2645905,0.9301768599456308,0.8289185762405396,0.05807313323020935,-0.4180316925048828,-2.0962860584259033,-4.352595329284668,-1.3133347034454346
55109.274549500005,0.953412839001348,0.9068937301635742,0.04558205604553223,-0.29062360525131226,-2.6288599967956543,-4.454067230224609,-1.5301258563995361
55109.2845075,0.8720026002195986,0.8341094255447388,-0.025170832872390747,-0.2530146837234497,-2.915879964828491,-4.587409496307373,-1.7853853702545166
55109.2944665,0.7636903541883736,0.7159278988838196,-0.07727321982383728,-0.2543600797653198,-3.1514711380004883,-4.615130424499512,-2.069880723953247
55109.304425500006,0.7126086800792659,0.6617302894592285,-0.07736827433109283,-0.25286024808883667,-3.388350486755371,-4.565168380737305,-2.364219903945923
55109.3143835,0.7291964715371023,0.6861529350280762,0.02063119411468506,-0.2459593415260315,-3.2181179523468018,-4.576330661773682,-2.5853793621063232
55109.324342500004,0.7692010001154108,0.7276091575622559,0.14494876563549042,-0.20308852195739746,-2.917590379714966,-4.717365264892578,-2.811945915222168
55109.334300500006,0.7948519133381928,0.7700076103210449,0.16274753212928772,-0.11131525039672852,-3.05720853805542,-4.757603645324707,-2.9726181030273438
55109.3442595,0.8600000950031699,0.8477734923362732,0.14438433945178986,0.005782008171081543,-3.2425780296325684,-4.7889275550842285,-3.1308765411376953
55109.354217500004,0.9364777470938193,0.9120646119117737,0.15811026096343994,0.14187973737716675,-3.3516530990600586,-4.953460693359375,-3.4020185470581055
55109.36417650001,0.9743393207659129,0.9124835133552551,0.1358240693807602,0.31346893310546875,-3.600532293319702,-4.935812473297119,-3.7149834632873535
55109.3741345,1.00768057761616,0.9039405584335327,0.10983715951442719,0.4315639138221741,-3.7330973148345947,-4.717764377593994,-3.9980151653289795
55109.384093500004,0.9331703655518924,0.8276146650314331,0.0906313955783844,0.421481728553772,-3.525010108947754,-4.468686103820801,-4.220646858215332
55109.3940525,0.8116803188047659,0.7238923907279968,0.07658359408378601,0.3590817451477051,-3.2748398780822754,-4.269053936004639,-4.296429634094238
55109.4040105,0.7717704124838493,0.6790714859962463,0.14234207570552826,0.33797961473464966,-3.2262136936187744,-4.133977890014648,-4.370487689971924
55109.413969500005,0.8654886823533768,0.7054828405380249,0.30960702896118164,0.39434516429901123,-3.1311395168304443,-3.9907305240631104,-4.600048542022705
55109.4239275,1.027032245697144,0.7774564623832703,0.4471152126789093,0.5004444718360901,-3.144990921020508,-4.0067267417907715,-5.007925510406494
55109.4338865,1.0977303838765053,0.8206594586372375,0.41431954503059387,0.5998911261558533,-3.0132007598876953,-4.1488776206970215,-5.519906997680664
55109.44384391667,1.175358417050553,0.8464850783348083,0.3062720000743866,0.7557300329208374,-2.6498987674713135,-4.292178153991699,-5.9497904777526855
55109.45380291667,1.2668062014261208,0.8672186136245728,0.2637605369091034,0.8849633932113647,-2.249958038330078,-4.158827304840088,-5.934820175170898
55109.46376091667,1.2490518823570587,0.7758393883705139,0.3450821042060852,0.9160361289978027,-1.7754690647125244,-3.56704044342041,-5.624026298522949
55109.47371991667,1.194846659179663,0.6863511204719543,0.47856438159942627,0.8529694080352783,-1.6088205575942993,-2.7175989151000977,-5.253842353820801
55109.48367891667,1.1262111616765103,0.6147478818893433,0.5675089359283447,0.753903329372406,-1.4798316955566406,-1.8526791334152222,-5.080549240112305
55109.49363691667,1.0696529227609026,0.5650106072425842,0.5537641644477844,0.7199066877365112,-1.2630168199539185,-1.068394660949707,-5.060515403747559
55109.50359591667,1.10069439531466,0.605383574962616,0.4001075327396393,0.8276187777519226,-1.2443227767944336,-0.7427490949630737,-5.1845197677612305
55109.51355391667,1.2821479459203868,0.6789008975028992,0.30783799290657043,1.0431839227676392,-1.058203101158142,-0.4855179190635681,-5.315315246582031
55109.52351291667,1.5155819401560453,0.7134494185447693,0.3179757595062256,1.2987955808639526,-0.8849209547042847,-0.18976962566375732,-5.302977085113525
55109.53347091667,1.611379119546656,0.7168444991111755,0.2799627184867859,1.4157321453094482,-0.7015232443809509,0.4621700048446655,-5.309123516082764
55109.54342991667,1.561521574300614,0.6184667944908142,0.25679415464401245,1.410640001296997,-0.19544409215450287,1.0482337474822998,-5.333467960357666
55109.55338791667,1.4069412569544728,0.44695186614990234,0.1978754997253418,1.3193039894104004,0.10210531204938889,1.5162798166275024,-5.43496561050415
55109.56334691667,1.4560261000357293,0.42697495222091675,0.11452639102935791,1.3872952461242676,0.45286357402801514,2.153499126434326,-5.409147262573242
55109.57330591667,1.546712951027177,0.4939591884613037,0.06552451848983765,1.4642512798309326,0.44618770480155945,2.588137626647949,-5.382543563842773
55109.58326391667,1.5420746423875398,0.4657129645347595,-0.010729849338531494,1.4700307846069336,0.1286313235759735,2.7950963973999023,-5.324736595153809
55109.59322291667,1.6796636323305216,0.5228705406188965,-0.08046877384185791,1.59417724609375,-0.5530131459236145,2.9165167808532715,-5.140196800231934
55109.60318091667,1.8665782644091247,0.6460161805152893,-0.20075881481170654,1.7396762371063232,-1.3145760297775269,3.255164623260498,-4.828666687011719
55109.61313991667,1.9175918153558225,0.6904001832008362,-0.36084336042404175,1.7522265911102295,-1.7748644351959229,3.549161672592163,-4.445920467376709
55109.62309791667,1.8092229181046922,0.677642822265625,-0.5126044750213623,1.597286581993103,-2.2733614444732666,3.676661491394043,-3.971597909927368
55109.63305691667,1.7402592486634731,0.740032970905304,-0.6344594955444336,1.441636085510254,-2.5856027603149414,3.7981317043304443,-3.520960807800293
55109.64301491667,1.7665943920343372,0.9071601033210754,-0.7509881854057312,1.316788911819458,-2.3251750469207764,4.098099708557129,-3.1646482944488525
55109.65297391667,1.7793019961581455,1.021716833114624,-0.9230916500091553,1.126903772354126,-2.035440683364868,4.501454830169678,-2.8090033531188965
55109.66293291667,1.7592078800327497,1.0742279291152954,-1.064084768295288,0.8992053866386414,-2.01206374168396,4.929614543914795,-2.2824912071228027
55109.67289091667,1.7556934776072355,1.1308599710464478,-1.0955357551574707,0.7767990231513977,-2.368056058883667,5.048008918762207,-1.7190873622894287
55109.68284991667,1.7827993448640973,1.2197819948196411,-1.086967945098877,0.7134466171264648,-2.3361599445343018,4.438403606414795,-1.785783290863037
55109.69280791667,1.9011800551421945,1.3518115282058716,-1.1455779075622559,0.6890155673027039,-1.0436135530471802,4.328365325927734,-2.0524706840515137
55109.70276691667,2.0616141975329136,1.4983233213424683,-1.299483299255371,0.5626930594444275,-0.23014222085475922,4.895543098449707,-1.7460299730300903
55109.71272491667,1.9919114038774097,1.5041159391403198,-1.2992932796478271,0.13108491897583008,0.09587351232767105,5.86027717590332,-0.7783717513084412
55109.72268391667,1.4668463354902601,1.1820398569107056,-0.8628237843513489,-0.09977507591247559,0.3088182806968689,6.604917049407959,-0.10604631900787354
55109.73264191667,1.1177746493247123,0.8900070786476135,-0.6686657667160034,-0.10096365213394165,0.45076489448547363,6.411643981933594,0.5232834815979004
55109.74260091667,1.2605908392610317,0.818877637386322,-0.9562689065933228,-0.06386280059814453,0.885534942150116,5.705877304077148,0.6673160195350647
55109.75255991667,1.6634634967153048,1.0694142580032349,-1.271848201751709,0.07659047842025757,0.9477386474609375,5.331988334655762,0.6568781137466431
55109.76251791667,1.9153802723082838,1.3058074712753296,-1.3971022367477417,0.10795265436172485,0.5738017559051514,5.546114921569824,0.978546142578125
55109.77247691667,1.7676676837688254,1.1680735349655151,-1.3262698650360107,0.03551763296127319,0.030929993838071823,5.852255344390869,1.5829079151153564
55109.78243491667,1.6140182753011711,0.9441952705383301,-1.3066922426223755,-0.07813876867294312,-0.34272080659866333,5.8143815994262695,2.2697277069091797
55109.79239391667,1.6163725404558997,0.8490756154060364,-1.3736451864242554,-0.06949597597122192,-0.6245681643486023,5.3441033363342285,2.73140025138855
55109.80235191667,1.6957683906177474,0.8751193284988403,-1.4525011777877808,-0.006076514720916748,-0.9338477253913879,4.776484489440918,2.871220111846924
55109.81231091667,1.780557682932789,0.9930766820907593,-1.477776050567627,0.01903444528579712,-1.260904312133789,4.235337734222412,2.802720785140991
55109.82226891667,1.8104269778505468,1.0904394388198853,-1.4451898336410522,0.0037439465522766113,-1.481545090675354,3.7848033905029297,2.6883065700531006
55109.83222791667,1.8116551667875904,1.1194863319396973,-1.4237903356552124,-0.040815144777297974,-0.8703204393386841,3.0782344341278076,1.978721022605896
55109.84218691667,1.8358409431507459,1.142080545425415,-1.4358681440353394,-0.06516647338867188,-0.17969082295894623,2.481112003326416,1.057985782623291
55109.85214491667,1.8713160830375528,1.2051794528961182,-1.4257752895355225,-0.1285736858844757,-0.6758823990821838,1.398444414138794,1.816039800643921
55109.86210391667,1.8600493291441542,1.513323426246643,-1.067145824432373,-0.17560040950775146,-0.8614336252212524,0.5305929183959961,2.9580698013305664
55109.87206191667,1.9263385845696652,1.8682218790054321,-0.4690988063812256,0.02176380157470703,-0.7617101669311523,1.0171512365341187,3.6021952629089355
55109.88202091667,1.5711456991898394,1.54771888256073,-0.2583479881286621,-0.07950714230537415,-1.2910288572311401,1.8903684616088867,4.225461483001709
55109.89197891667,1.2270649175538324,1.0760247707366943,-0.3927087187767029,-0.4400441646575928,-2.162930727005005,2.449174404144287,4.7935991287231445
55109.90193791667,1.2149281142939963,0.8979414105415344,-0.6585584282875061,-0.4858521819114685,-2.368705987930298,2.525867462158203,4.846028804779053
55109.91189591667,1.301246503884395,0.8403329253196716,-0.9017809629440308,-0.41698217391967773,-1.9280177354812622,2.480186939239502,4.5292744636535645
55109.92185491667,1.376774918449176,0.786841630935669,-1.0662481784820557,-0.3735026717185974,-1.8258458375930786,2.088778257369995,4.064809322357178
55109.93181391667,1.4830525591113202,0.9969757795333862,-1.0386883020401,-0.3558241128921509,-1.4420647621154785,1.3262381553649902,4.049760341644287
55109.94177191667,1.5373807331022897,1.3316051959991455,-0.7219276428222656,-0.2630353569984436,-0.5548883080482483,0.4861128032207489,4.409265518188477
55109.95173091667,1.6558876781128626,1.5912723541259766,-0.407105028629303,-0.20995664596557617,0.6026895046234131,-0.006437487900257111,4.4181294441223145
55109.96168891667,1.6844033861968313,1.662470817565918,-0.14716452360153198,-0.22748219966888428,1.499017596244812,-0.47612935304641724,4.030587673187256
55109.97164791667,1.5871762036184105,1.5479596853256226,0.1355012059211731,-0.3234015107154846,1.8619039058685303,-0.8869126439094543,3.475778102874756
55109.98160591667,1.5146402482599408,1.3812767267227173,0.3839212656021118,-0.48868614435195923,1.6084871292114258,-0.9168779850006104,3.0062954425811768
55109.99156491667,1.493908891816356,1.1853123903274536,0.6112402677536011,-0.6731891632080078,1.0914640426635742,-0.4861433506011963,3.4072201251983643
55110.00152291667,1.5019145325008199,0.951294481754303,0.8615975379943848,-0.780022919178009,0.41824108362197876,0.1828453540802002,3.741328716278076
55110.01148191667,1.506551322278274,0.7869841456413269,1.0137770175933838,-0.7890557646751404,0.13315916061401367,1.5079984664916992,3.6457674503326416
55110.02144091667,1.4897753989011346,0.5509102940559387,1.0908269882202148,-0.8520710468292236,0.5516455769538879,2.454270601272583,3.606269121170044
55110.03139891667,1.5064967693890177,0.2152111977338791,1.219952940940857,-0.8572814464569092,1.176896572113037,1.7168774604797363,3.4918627738952637
55110.04135791667,1.33476488491127,0.16495466232299805,1.1911532878875732,-0.5792590975761414,0.9169406294822693,0.7357079982757568,3.0613043308258057
55110.05131591667,1.2478842096721894,0.5075700879096985,1.067240595817566,-0.4007307291030884,0.3294030427932739,-0.19232939183712006,2.0643157958984375
55110.06127491667,1.1617485328572859,0.6866039633750916,0.8731128573417664,-0.34045350551605225,-0.726140558719635,-0.7730780243873596,1.3703877925872803
55110.07123291667,0.9127387969066654,0.5531508922576904,0.6046446561813354,-0.40189680457115173,-1.7884609699249268,-1.0404860973358154,1.0513272285461426
55110.08119191667,0.8754847527905233,0.4958900809288025,0.5389463901519775,-0.47969090938568115,-2.1671957969665527,-0.856566846370697,0.9701624512672424
55110.09114991667,0.894068584556334,0.38605934381484985,0.6194381713867188,-0.5163459777832031,-2.07698392868042,-0.6056593656539917,1.0671532154083252
55110.10110891667,0.913962149145854,0.2051517814397812,0.6742680668830872,-0.5818952918052673,-1.5654724836349487,-0.7315440773963928,1.197091817855835
55110.11106791667,0.8821834068104968,0.11893504858016968,0.674114465713501,-0.5564815402030945,-1.0292185544967651,-0.8887061476707458,1.326324462890625
55110.12102591667,0.8263731965015494,0.22051946818828583,0.6022008657455444,-0.5211697816848755,-0.9017332196235657,-1.0652313232421875,1.3446837663650513
55110.13098491667,0.7725204693241537,0.32122254371643066,0.5157111883163452,-0.47712254524230957,-0.7141623497009277,-1.2608656883239746,1.2979668378829956
55110.14094291667,0.6118612324711924,0.2395191639661789,0.4039856195449829,-0.3921738862991333,-0.6160189509391785,-1.3054908514022827,1.3170933723449707
55110.15090191667,0.4369228710499728,0.08730410039424896,0.2799754738807678,-0.3238723874092102,-0.5474005937576294,-1.377369999885559,1.3344502449035645
55110.16085991667,0.35616569341562804,0.03443939983844757,0.2534916400909424,-0.2478102445602417,-0.5717195272445679,-1.5355857610702515,1.2904654741287231
55110.17081891667,0.33918643145846694,0.088661327958107,0.2704811692237854,-0.18446284532546997,-0.48175275325775146,-1.6940468549728394,1.2182023525238037
55110.18077691667,0.3440495393886376,0.1627996861934662,0.2728918194770813,-0.13189542293548584,-0.39654970169067383,-1.92189621925354,1.1985642910003662
55110.19073591667,0.373308951114381,0.21114933490753174,0.29693907499313354,-0.08125710487365723,-0.3380261957645416,-2.091688871383667,1.3658963441848755
55110.20069491667,0.41888217230886055,0.21326801180839539,0.3604857921600342,-0.005387306213378906,0.2999630570411682,-2.479763984680176,1.4681249856948853
55110.21065291667,0.42316015866116957,0.1557978391647339,0.38713330030441284,0.07013815641403198,-0.20315639674663544,-1.161908507347107,1.9442317485809326
55110.22061191667,0.3176569571489935,-0.0100783109664917,0.3126225471496582,0.05542123317718506,0.04427922144532204,-1.7135580778121948,1.900128960609436
55110.23056991667,0.3565576731315065,-0.17034512758255005,0.3093912601470947,0.04891788959503174,0.23774296045303345,-2.045397996902466,1.6674796342849731
55110.24052891667,0.45478618599900655,-0.1788177192211151,0.3869723677635193,0.15845215320587158,0.7718601822853088,-2.1101536750793457,1.582318663597107
55110.25048691667,0.2995256672649946,-0.04035922884941101,0.20635533332824707,0.21331721544265747,1.1065585613250732,-2.1217072010040283,1.546923041343689
55110.26044591667,0.26820155872262497,-0.04570251703262329,0.064017653465271,0.25640806555747986,1.2662748098373413,-2.176607131958008,1.4979908466339111
55110.27040391667,0.35511026913193683,-0.11538922786712646,0.06547141075134277,0.3293966054916382,0.8831006288528442,-2.2174322605133057,1.6603171825408936
