Timestamp,AX,AY,AZ,RX,RY,RZ,Jump
93243.652730125,0.1980479210615158,0.10301905870437622,-0.17831021547317505,3.0502142906188965,0.034203555434942245,2.461519479751587,false
93243.66268812501,0.6570637822151184,1.3974090814590454,-0.6525616645812988,-0.9534733891487122,-1.0225532054901123,-0.9271126985549927,true
93243.672647125,0.6771669983863831,2.68845534324646,-1.2125177383422852,-1.4866187572479248,0.9768584370613098,-1.637706995010376,false
93243.682606125,-0.4406667947769165,0.8403846621513367,0.7142484784126282,3.2034120559692383,0.7313123345375061,-2.149949789047241,false
93243.692565125,-0.15391629934310913,-1.4576165676116943,1.0900025367736816,2.6021766662597656,0.4244116246700287,-1.6391934156417847,false
93243.702523125,0.015009038150310516,-1.9602975845336914,-0.7290607690811157,1.042486548423767,0.5260493159294128,-1.6653566360473633,false
93243.712482125,0.163386270403862,-0.7230266332626343,-0.7526298761367798,0.10955856740474701,0.8095813393592834,-0.28661584854125977,false
93243.722441125,0.11681519448757172,0.15416371822357178,-0.13914602994918823,-0.9837372303009033,0.8062664866447449,0.34001052379608154,false
93243.73240012501,0.2585766315460205,-0.0004113316535949707,0.0891541838645935,-1.547888994216919,-0.41521137952804565,0.21770289540290833,false
93243.742358125,0.4234471917152405,0.3047221899032593,0.2741762399673462,0.1177704855799675,-0.7088539600372314,0.20708833634853363,false
93243.752317125,0.49344518780708313,0.5114043951034546,0.24092751741409302,1.0353448390960693,1.154605746269226,0.03465903177857399,false
93243.76227612501,0.2884407043457031,0.1822187900543213,-0.06768614053726196,0.02520279958844185,2.2247347831726074,-1.034875512123108,false
93243.77223512501,0.008801668882369995,-0.24838292598724365,-0.45230960845947266,-0.0215924009680748,1.8637921810150146,-1.369813084602356,false
93243.78219312501,0.31758055090904236,-0.2414407730102539,-0.14507371187210083,0.11022501438856125,0.18444252014160156,-2.547538995742798,false
93243.79215212501,0.7592527270317078,-0.3893880248069763,-0.12459945678710938,-0.13803865015506744,-0.21570202708244324,-3.675539255142212,false
93243.80211112501,0.777980387210846,-0.3742774724960327,-0.050351619720458984,-0.00972915068268776,-0.058495886623859406,-4.595207214355469,false
93243.812070125,0.43935441970825195,-0.20522016286849976,-0.005346179008483887,0.4796837568283081,-0.8950332999229431,-4.51869535446167,false
93243.82202812501,0.021888315677642822,-0.09607136249542236,-0.0019175410270690918,0.6188541650772095,-2.0538330078125,-3.677821159362793,false
93243.831987125,-0.1700679063796997,-0.08284980058670044,0.03173130750656128,0.9447228908538818,-1.3743513822555542,-2.211723566055298,false
93243.841946125,-0.3291637599468231,-0.12282693386077881,0.06666254997253418,1.1750982999801636,0.8365449905395508,-0.7464510798454285,false
93243.851905125,-0.4947049021720886,-0.17709797620773315,-0.0019831061363220215,1.0217432975769043,1.829224944114685,0.9103921055793762,false
93243.861863125,-0.40637707710266113,-0.08407032489776611,-0.18951696157455444,-0.18422365188598633,1.1680113077163696,3.8871634006500244,false
93243.871822125,0.01984080672264099,0.03309839963912964,-0.2060760259628296,-2.064896821975708,-2.271317958831787,2.1235203742980957,false
93243.881781125,0.8065938353538513,0.1770995855331421,-0.08357763290405273,-0.8618606925010681,-0.9215428829193115,-2.309788465499878,false
93243.89174012501,1.026330590248108,0.33486491441726685,0.10322493314743042,1.0246638059616089,1.0924731492996216,-4.114334583282471,false
93243.901698125,0.30811047554016113,-0.4047797918319702,-0.27455466985702515,0.9392125010490417,-0.1339404433965683,-2.2476589679718018,false
93243.911657125,-0.2856898307800293,-0.573829710483551,-0.33397728204727173,0.5220128893852234,0.7507978677749634,0.6879912614822388,false
93243.92161612501,-0.7769862413406372,0.043838441371917725,0.006866633892059326,0.7906635403633118,1.4079885482788086,1.7834844589233398,false
93243.93157512501,-1.281050443649292,0.10216623544692993,-0.11904686689376831,0.861676812171936,1.1991055011749268,1.9466583728790283,false
93243.941533125,-0.7722280025482178,0.01064920425415039,-0.02082282304763794,0.5732466578483582,0.5812166929244995,0.9345138669013977,false
93243.95149212501,0.23684796690940857,-0.1814402937889099,0.035740554332733154,0.4761885702610016,0.6648178696632385,0.37803080677986145,false
93243.96145112501,0.6249822974205017,-0.2088843584060669,-0.014459490776062012,0.2662595510482788,0.4088393449783325,0.7826946377754211,false
93243.971410125,0.41671761870384216,-0.18118399381637573,-0.09059947729110718,0.19483457505702972,0.4568619132041931,1.660204529762268,false
93243.98136812501,0.1695815920829773,-0.029169738292694092,-0.06360894441604614,0.01591009832918644,0.2811897099018097,1.9803167581558228,false
93243.99132712501,-0.05122196674346924,0.04207563400268555,-0.02811509370803833,-0.06872150301933289,-0.004013603553175926,2.032545328140259,false
93244.001286125,-0.09178811311721802,0.04313194751739502,0.04177325963973999,0.04025851562619209,-0.07814987748861313,2.032170534133911,false
93244.011245125,-0.15409822762012482,-0.0371742844581604,0.05347245931625366,0.42820385098457336,-0.1332472264766693,1.5622811317443848,false
93244.02120312501,-0.18000151216983795,-0.004953324794769287,0.029163122177124023,0.9282509684562683,-0.1507497876882553,1.1621617078781128,false
93244.031162125,-0.08682277798652649,0.001261293888092041,0.004214048385620117,1.220416784286499,-0.2092815339565277,0.8288848996162415,false
93244.041121125,0.06961460411548615,0.01650291681289673,-0.00408095121383667,1.1561146974563599,-0.1253243088722229,0.4911385178565979,false
93244.051080125,0.26408714056015015,-0.06669420003890991,-0.048269450664520264,1.0618152618408203,-0.11654055118560791,0.7463086843490601,false
93244.061038125,0.10677599906921387,-0.10507041215896606,-0.11466091871261597,1.3572094440460205,0.43854400515556335,0.6864171624183655,false
93244.070997125,-0.18253809213638306,0.025080561637878418,-0.08588486909866333,1.5386887788772583,1.0269821882247925,0.4392557442188263,false
93244.080956125,-0.3487200438976288,0.12920063734054565,-0.014211952686309814,1.108707308769226,0.33878135681152344,1.52218759059906,false
93244.09091512501,-0.15752951800823212,0.021165668964385986,0.034836411476135254,0.6849715113639832,0.42417749762535095,1.8852180242538452,false
93244.100873125,-0.029640719294548035,-0.11397522687911987,0.05264627933502197,0.4465419054031372,0.617133378982544,1.6293226480484009,false
93244.110832125,-0.31159281730651855,-0.08495718240737915,-0.009827375411987305,0.07858333736658096,0.494930237531662,1.396750807762146,false
93244.12079112501,-0.33287084102630615,-0.11373859643936157,-0.07279759645462036,-0.2148943543434143,0.4255160093307495,0.8423472046852112,false
93244.13075012501,-0.21775934100151062,-0.16528403759002686,-0.07088637351989746,-0.3727988302707672,0.21709027886390686,0.6178371906280518,false
93244.140708125,-0.13776355981826782,-0.19580745697021484,-0.0764697790145874,-0.30388128757476807,0.2584076225757599,0.5211381316184998,false
93244.15066712501,-0.017412438988685608,-0.2675793766975403,-0.11435437202453613,-0.18248873949050903,0.05074930936098099,0.42819902300834656,false
93244.160626375,-0.04530325531959534,-0.2697429656982422,-0.142347514629364,0.3714900314807892,0.04181760177016258,0.4385155737400055,false
93244.170585375,-0.13476236164569855,-0.21722716093063354,-0.1756991147994995,0.8958191275596619,-0.16933079063892365,0.27944982051849365,false
93244.18054337501,-0.19657550752162933,-0.11487489938735962,-0.21596503257751465,1.754838466644287,-0.6008877754211426,0.2575538456439972,false
93244.190502375,-0.1723991334438324,-0.08446598052978516,-0.17599672079086304,2.859863042831421,-1.388413667678833,0.3408040404319763,false
93244.200461375,0.03530247509479523,0.040389835834503174,-0.22966992855072021,3.392439603805542,-1.784111499786377,0.2117890566587448,false
93244.210420375,0.24677018821239471,0.1439322829246521,-0.3180897831916809,3.488508939743042,-1.964210033416748,0.43913593888282776,false
93244.220378375,0.2527235746383667,0.1463223695755005,-0.1998639702796936,3.0005884170532227,-1.3094791173934937,1.305497407913208,false
93244.230337375,0.31233111023902893,0.051252007484436035,-0.09616208076477051,2.198204517364502,0.04819900169968605,1.787264108657837,false
93244.240296375,0.4594244062900543,-0.05243009328842163,0.04662308096885681,1.7674329280853271,-0.18410933017730713,0.9421725273132324,false
93244.25025537501,0.5238710641860962,-0.06966191530227661,0.238822340965271,2.0743045806884766,-0.8726927042007446,0.7027619481086731,false
93244.260213375,0.45398446917533875,-0.04078108072280884,0.14615729451179504,2.7393882274627686,-1.252894639968872,0.9968156814575195,false
93244.270172375,0.4215674102306366,-0.01892256736755371,-0.03256991505622864,3.447578191757202,-1.017110824584961,1.2729953527450562,false
93244.28013137501,0.23958928883075714,0.10730105638504028,0.04496780037879944,3.8321938514709473,-0.4243735373020172,1.3670384883880615,false
93244.29009037501,-0.059813305735588074,0.35926198959350586,0.17948544025421143,4.524857044219971,0.04856611788272858,1.4322702884674072,false
93244.30004837501,-0.23678813874721527,0.5305323600769043,0.1967097520828247,5.241093158721924,0.20931746065616608,1.4839234352111816,false
93244.31000737501,-0.1975938379764557,0.38959217071533203,0.15729475021362305,5.366342067718506,0.2606241703033447,1.294498085975647,false
93244.31996637501,-0.06797978281974792,0.14853805303573608,0.15161538124084473,5.184566497802734,0.4531547427177429,0.935997724533081,false
93244.329925375,-0.00728529691696167,0.12752795219421387,0.1804347038269043,5.184774875640869,0.716682493686676,0.7169564366340637,false
93244.339884375,-0.038899295032024384,0.25154638290405273,0.1733846664428711,5.3440985679626465,0.8986527919769287,0.6348876953125,false
93244.349842375,-0.09156907349824905,0.3834974765777588,0.264029860496521,5.344372749328613,1.148322582244873,0.5265903472900391,false
93244.359801375,-0.1325221061706543,0.5026576519012451,0.2835327386856079,5.073850154876709,1.393696904182434,0.3362284004688263,false
93244.369760375,-0.17270682752132416,0.5761409401893616,0.2295851707458496,4.4638566970825195,1.5585076808929443,0.10279681533575058,false
93244.379719375,-0.19433055818080902,0.49078941345214844,0.18831570446491241,3.7974154949188232,1.742192268371582,-0.059571847319602966,false
93244.389677375,-0.19168007373809814,0.3272055387496948,0.12865296006202698,3.5199804306030273,1.929567575454712,-0.22712312638759613,false
93244.399636375,-0.1771910935640335,0.22014236450195312,0.0771680474281311,3.617027997970581,2.1732723712921143,-0.3574787378311157,false
93244.40959537501,-0.1654542237520218,0.26107871532440186,0.0633845329284668,3.9910688400268555,2.381772518157959,-0.37433019280433655,false
93244.41955437501,-0.1573510468006134,0.44481784105300903,0.0794840157032013,4.409836769104004,2.4988672733306885,-0.4274059236049652,false
93244.429512375,-0.10513372719287872,0.5434807538986206,0.10333612561225891,4.527454376220703,2.596519947052002,-0.5754787921905518,false
93244.43947137501,-0.04239249229431152,0.49112242460250854,0.12460407614707947,4.3415207862854,2.658054828643799,-0.7206916809082031,false
93244.44943037501,-0.01699119061231613,0.39981430768966675,0.12882190942764282,4.033143520355225,2.7535860538482666,-0.7594214677810669,false
93244.459389375,-0.04231193661689758,0.27692633867263794,0.16741669178009033,3.826937675476074,2.8651769161224365,-0.7469426989555359,false
93244.46934737501,-0.09658879041671753,0.16829121112823486,0.22347235679626465,3.8215272426605225,2.907437562942505,-0.7488565444946289,false
93244.47930637501,-0.12716197967529297,0.10997474193572998,0.23378849029541016,3.9277150630950928,2.907609224319458,-0.7541724443435669,false
93244.489265375,-0.10140664875507355,0.1244882345199585,0.21818023920059204,4.0509934425354,2.8806071281433105,-0.7570446133613586,false
93244.499224375,-0.04793596267700195,0.18563157320022583,0.2135467529296875,3.996777057647705,2.7541286945343018,-0.7889026999473572,false
93244.50918237501,0.0037432312965393066,0.2009626030921936,0.19530028104782104,3.711667060852051,2.587899923324585,-0.8145707845687866,false
93244.519141375,0.03828988969326019,0.14833754301071167,0.17294418811798096,3.319018602371216,2.398867130279541,-0.8489705324172974,false
93244.529100375,0.0352364182472229,0.05221724510192871,0.16485357284545898,2.9461116790771484,2.209575653076172,-0.8203980922698975,false
93244.539059375,-0.001092657446861267,-0.05152183771133423,0.14743614196777344,2.6481993198394775,2.0764663219451904,-0.7350320816040039,false
93244.549017375,-0.04274173080921173,-0.11231034994125366,0.17490458488464355,2.481534004211426,1.9638651609420776,-0.6753889322280884,false
93244.558976375,-0.07808299362659454,-0.10711920261383057,0.20280927419662476,2.311185836791992,1.831354022026062,-0.605911910533905,false
93244.568935375,-0.08993679285049438,-0.06910860538482666,0.19393301010131836,2.046518325805664,1.64110267162323,-0.5266174077987671,false
93244.57889437501,-0.0734257698059082,-0.051467716693878174,0.18167322874069214,1.7538414001464844,1.4012585878372192,-0.5211755037307739,false
93244.588852375,-0.055492132902145386,-0.1045006513595581,0.15718179941177368,1.4983450174331665,1.2804033756256104,-0.45349863171577454,false
93244.598811375,-0.07784983515739441,-0.18505144119262695,0.1412886381149292,1.382671594619751,1.150810718536377,-0.38108888268470764,false
93244.60877037501,-0.11556485295295715,-0.20996582508087158,0.18493413925170898,1.3738840818405151,1.020627498626709,-0.3658660352230072,false
93244.61872937501,-0.10587108135223389,-0.1830492615699768,0.2069060206413269,1.3526251316070557,0.8924584984779358,-0.37524089217185974,false
93244.628687375,-0.07782506942749023,-0.13057661056518555,0.20054280757904053,1.2191418409347534,0.737002432346344,-0.3356804847717285,false
93244.63864637501,-0.06529369950294495,-0.10374999046325684,0.18341785669326782,0.8843567371368408,0.624320924282074,-0.3005898892879486,false
93244.64860537501,-0.07516783475875854,-0.10484045743942261,0.16842085123062134,0.4990595281124115,0.496155321598053,-0.3155348002910614,false
93244.658564375,-0.09294393658638,-0.08787655830383301,0.16077035665512085,0.1497289538383484,0.3322441577911377,-0.2999457120895386,false
93244.66852237501,-0.07890364527702332,-0.09366470575332642,0.1388210654258728,-0.034085821360349655,0.18332798779010773,-0.2865540087223053,false
93244.67848137501,-0.04157149791717529,-0.14441770315170288,0.12294590473175049,-0.06480351835489273,0.10473091900348663,-0.27822574973106384,false
93244.688440375,-0.04252418875694275,-0.1768069863319397,0.10415828227996826,0.04033847898244858,0.055194657295942307,-0.2341146022081375,false
93244.698399375,-0.06211918592453003,-0.13462543487548828,0.10563158988952637,0.22747854888439178,-0.010313509963452816,-0.20851869881153107,false
93244.708357375,-0.04227447509765625,-0.06759685277938843,0.11224770545959473,0.3092951774597168,-0.04262584447860718,-0.21110564470291138,false
93244.718316375,-0.006325066089630127,-0.051744937896728516,0.09377717971801758,0.23796214163303375,-0.0402417853474617,-0.23325754702091217,false
93244.728275375,0.004459351301193237,-0.05583304166793823,0.11105412244796753,0.03907713666558266,-0.036796052008867264,-0.23241709172725677,false
93244.738234375,-0.010564923286437988,-0.052979469299316406,0.11176234483718872,-0.20867140591144562,-0.08019838482141495,-0.18890875577926636,false
93244.748192375,-0.022957146167755127,-0.04374861717224121,0.06989634037017822,-0.41666004061698914,-0.15241186320781708,-0.13777486979961395,false
93244.758151375,-0.004880279302597046,-0.07131463289260864,0.023744404315948486,-0.5115743279457092,-0.21563372015953064,-0.1629209816455841,false
93244.76811037501,0.01214417815208435,-0.12346339225769043,-0.013876020908355713,-0.44532403349876404,-0.1942606419324875,-0.16870325803756714,false
93244.77806937501,-0.0021809041500091553,-0.12693369388580322,-0.025432586669921875,-0.2043156772851944,-0.15924859046936035,-0.1566188931465149,false
93244.788027375,-0.006663978099822998,-0.05180126428604126,0.021445274353027344,0.0636252909898758,-0.14094887673854828,-0.1563473492860794,false
93244.79798637501,0.02311021089553833,0.02289891242980957,0.03819030523300171,0.12396585941314697,-0.10696162283420563,-0.14775651693344116,false
93244.80794537501,0.05122262239456177,0.020402193069458008,0.03795337677001953,-0.08568450063467026,-0.0729985237121582,-0.10807903110980988,false
93244.817904375,0.033778607845306396,-0.04230386018753052,0.04220694303512573,-0.4141731560230255,-0.027712276205420494,-0.048971232026815414,false
93244.82786237501,-0.01834729313850403,-0.11174178123474121,0.03630387783050537,-0.6722511649131775,0.0004113719332963228,0.02009974606335163,false
93244.83782137501,-0.059082210063934326,-0.15843909978866577,0.02238011360168457,-0.7528906464576721,-0.059447698295116425,0.05697174370288849,false
93244.847780375,-0.04870796203613281,-0.15876156091690063,-0.0005310773849487305,-0.6486543416976929,-0.1643052101135254,0.06830677390098572,false
93244.857739375,0.0010319650173187256,-0.11134535074234009,-0.03642094135284424,-0.4719293415546417,-0.23351703584194183,0.14047443866729736,false
93244.86769737501,0.038874536752700806,-0.05590522289276123,-0.03885161876678467,-0.30472591519355774,-0.2744462788105011,0.15278948843479156,false
93244.877656375,0.0588567852973938,-0.037872314453125,-0.012626051902770996,-0.17798128724098206,-0.18344368040561676,0.16342481970787048,false
93244.887615375,0.047556400299072266,-0.0666879415512085,0.022930622100830078,-0.11639367789030075,-0.09513100236654282,0.18637968599796295,false
93244.897574375,0.014572054147720337,-0.10181677341461182,0.0647268295288086,-0.13415536284446716,-0.07025174796581268,0.17884214222431183,false
93244.907532375,0.021707922220230103,-0.101870596408844,0.05795443058013916,-0.2041206657886505,-0.07853744179010391,0.19859297573566437,false
93244.917491375,0.051553875207901,-0.06547486782073975,0.027403652667999268,-0.3271099925041199,-0.0824030190706253,0.2608182728290558,false
93244.927450375,0.0469852089881897,-0.048277318477630615,0.004665017127990723,-0.49200451374053955,-0.07536868005990982,0.3101792633533478,false
93244.93740937501,0.009856373071670532,-0.06570553779602051,-0.02413642406463623,-0.5642027854919434,-0.06099772825837135,0.3330627381801605,false
93244.947367375,-0.018898725509643555,-0.07687890529632568,-0.02913343906402588,-0.46737435460090637,-0.06681413948535919,0.3472904860973358,false
93244.957326375,-0.01526591181755066,-0.04807227849960327,-0.02927786111831665,-0.2823539078235626,-0.06475871056318283,0.35158616304397583,false
93244.96728537501,0.005846291780471802,0.002731621265411377,-0.0448186993598938,-0.12662574648857117,-0.004243367817252874,0.35758110880851746,false
93244.97724437501,0.012850016355514526,0.0404927134513855,-0.03913521766662598,0.02300795540213585,0.1085532158613205,0.3361629247665405,false
93244.987202375,0.0007416009902954102,0.0647803544998169,0.0020906925201416016,0.11266300827264786,0.1885170340538025,0.27052292227745056,false
93244.99716137501,-0.00523647665977478,0.09032851457595825,0.02380061149597168,0.12828698754310608,0.22991639375686646,0.1937463879585266,false
93245.00712037501,0.00928652286529541,0.13256138563156128,-0.005363821983337402,0.06841139495372772,0.26711010932922363,0.1478976160287857,false
93245.017079375,0.012391149997711182,0.16829395294189453,-0.03530234098434448,-0.05874842777848244,0.27139008045196533,0.10398873686790466,false
93245.02703737501,-0.005875140428543091,0.16084402799606323,-0.05075275897979736,-0.16328568756580353,0.27381041646003723,0.062375765293836594,false
93245.03699637501,-0.022231191396713257,0.11871689558029175,-0.059284508228302,-0.1362985521554947,0.2564482092857361,0.021526599302887917,false
93245.046955375,-0.025983333587646484,0.07451057434082031,-0.05048340559005737,0.04620448872447014,0.24694371223449707,-0.032194834202528,false
93245.056914375,-0.012460708618164062,0.06691044569015503,-0.06373882293701172,0.27120429277420044,0.25369006395339966,-0.05476778745651245,false
93245.066873375,-0.005023360252380371,0.10662615299224854,-0.06817907094955444,0.4384576380252838,0.23087407648563385,-0.0775766670703888,false
93245.076831375,0.005136460065841675,0.14766836166381836,-0.06594043970108032,0.41408970952033997,0.19628867506980896,-0.08320978283882141,false
93245.086790375,0.019928842782974243,0.12090510129928589,-0.07003593444824219,0.2573455572128296,0.16432695090770721,-0.0869230106472969,false
93245.096749375,0.02308061718940735,0.030923962593078613,-0.04898881912231445,0.05601457506418228,0.1287393867969513,-0.06926891952753067,false
93245.106707375,0.008125096559524536,-0.05868774652481079,-0.02962315082550049,-0.07561368495225906,0.08195676654577255,-0.05109518766403198,false
93245.116666375,0.005550950765609741,-0.10474097728729248,-0.018472731113433838,-0.0667664036154747,0.03553520515561104,-0.051825158298015594,false
93245.12662537501,0.022383272647857666,-0.09773045778274536,-0.012018322944641113,0.007051626220345497,-0.005626346915960312,-0.0318935289978981,false
93245.13658437501,0.035318076610565186,-0.04698145389556885,-0.012610793113708496,0.02928449586033821,-0.06896377354860306,0.012659556232392788,false
93245.14654337501,0.03607594966888428,-0.010288596153259277,-0.011297225952148438,-0.047345567494630814,-0.12029114365577698,0.04267071932554245,false
93245.1565005,0.030422210693359375,-0.03264230489730835,-0.0021902918815612793,-0.1932641565799713,-0.15110285580158234,0.06764078140258789,false
93245.1664595,0.018479973077774048,-0.08647924661636353,0.02607947587966919,-0.32627785205841064,-0.21491698920726776,0.0892571285367012,false
93245.1764185,0.015431344509124756,-0.1293516755104065,0.04787755012512207,-0.3840343654155731,-0.2768791615962982,0.09554165601730347,false
93245.18637750001,0.024065494537353516,-0.14388978481292725,0.05250060558319092,-0.35524168610572815,-0.2898336350917816,0.12900583446025848,false
93245.1963355,0.02518928050994873,-0.12431842088699341,0.059681713581085205,-0.2814369797706604,-0.31476402282714844,0.15891791880130768,false
93245.2062945,0.022282421588897705,-0.08423888683319092,0.07380324602127075,-0.28818821907043457,-0.3514454960823059,0.18188810348510742,false
93245.21625350001,0.028416961431503296,-0.07055723667144775,0.07274103164672852,-0.43042418360710144,-0.42136332392692566,0.22994591295719147,false
93245.22621250001,0.03783780336380005,-0.08132243156433105,0.06889593601226807,-0.7360007762908936,-0.5511144995689392,0.3002164661884308,false
93245.23617050001,0.043594568967819214,-0.13069123029708862,0.07078498601913452,-1.1304970979690552,-0.6930263638496399,0.39657920598983765,false
93245.24612950001,0.05132046341896057,-0.2153763771057129,0.0798456072807312,-1.6056184768676758,-0.8161849975585938,0.507264256477356,false
93245.2560885,0.04535558819770813,-0.29748958349227905,0.09308260679244995,-2.15726375579834,-0.9145981669425964,0.6345587968826294,false
93245.2660475,0.029980123043060303,-0.36293065547943115,0.11150193214416504,-2.705793857574463,-1.0205447673797607,0.7213072776794434,false
93245.27600550001,0.02685147523880005,-0.4320170283317566,0.12052464485168457,-3.187296152114868,-1.1260402202606201,0.8025102615356445,false
93245.2859645,0.028447508811950684,-0.49405521154403687,0.1173672080039978,-3.6226730346679688,-1.2333824634552002,0.9066683650016785,false
93245.2959235,0.02233937382698059,-0.5209926962852478,0.13084626197814941,-4.000247478485107,-1.3475369215011597,1.0305198431015015,false
93245.3058825,0.016605913639068604,-0.5156118869781494,0.15807610750198364,-4.30198860168457,-1.4892237186431885,1.1592971086502075,false
93245.3158405,0.018877387046813965,-0.49976933002471924,0.18591660261154175,-4.55924129486084,-1.64348304271698,1.2966361045837402,false
93245.3257995,0.028957009315490723,-0.4999489188194275,0.20865249633789062,-4.8877997398376465,-1.816034197807312,1.4145655632019043,false
93245.3357585,0.04491981863975525,-0.5175603628158569,0.20331865549087524,-5.350613117218018,-2.0346946716308594,1.4836772680282593,false
93245.34571750001,0.07017716765403748,-0.5435600876808167,0.1741650104522705,-5.966123580932617,-2.281569242477417,1.5404866933822632,false
93245.3556755,0.09582847356796265,-0.5802528858184814,0.17442438006401062,-6.74842643737793,-2.5284502506256104,1.5953060388565063,false
93245.3656345,0.11804774403572083,-0.6189039349555969,0.18626075983047485,-7.613274097442627,-2.8203961849212646,1.5827994346618652,false
93245.37559350001,0.1393432319164276,-0.6575930118560791,0.18685901165008545,-8.368146896362305,-3.092695713043213,1.6015872955322266,false
93245.38555250001,0.16456755995750427,-0.699220597743988,0.1758851408958435,-8.99158763885498,-3.3247036933898926,1.6219662427902222,false
93245.3955105,0.20243269205093384,-0.7343705296516418,0.18034549057483673,-9.488913536071777,-3.5018579959869385,1.6192032098770142,false
93245.40546950001,0.24641165137290955,-0.7195109128952026,0.19768530130386353,-9.679500579833984,-3.6358642578125,1.5915776491165161,false
93245.41542850001,0.28562936186790466,-0.6180844306945801,0.22678005695343018,-9.549318313598633,-3.8076834678649902,1.5225820541381836,false
93245.4253875,0.3335147500038147,-0.4766739010810852,0.22622835636138916,-9.196383476257324,-3.986201286315918,1.4366936683654785,false
93245.43534550001,0.39580753445625305,-0.3231201767921448,0.19302010536193848,-8.8270845413208,-4.179278373718262,1.2482566833496094,false
93245.44530450001,0.4702424705028534,-0.17198729515075684,0.16941092908382416,-8.674507141113281,-4.301692008972168,1.0073344707489014,false
93245.4552635,0.5451735258102417,-0.040018320083618164,0.14236241579055786,-8.708133697509766,-4.428005218505859,0.6855851411819458,false
93245.4652225,0.6236936450004578,0.046664297580718994,0.12050136923789978,-8.815574645996094,-4.524803161621094,0.4171445071697235,false
93245.47518050001,0.6981924772262573,0.048073649406433105,0.09713244438171387,-8.694698333740234,-4.931079864501953,0.1843634396791458,false
93245.4851395,0.7629439830780029,-0.012326061725616455,0.0919378399848938,-8.253345489501953,-4.212216377258301,-0.44033583998680115,false
93245.4950985,0.7482272982597351,-0.10812419652938843,0.09207886457443237,-8.804007530212402,-4.264917373657227,-0.757043719291687,false
93245.5050575,0.5155483484268188,-0.21197563409805298,0.0939679741859436,-8.502265930175781,-4.683526515960693,-0.716145932674408,false
93245.5150155,0.5963394641876221,0.09367251396179199,0.14536505937576294,-7.812519073486328,-5.3331499099731445,-0.67676842212677,false
93245.5249745,0.7343008518218994,0.2619306445121765,0.07852131128311157,-7.27332067489624,-5.773565769195557,-0.6316952109336853,false
93245.5349335,0.7532995939254761,0.3551253080368042,-0.037333786487579346,-6.5169243812561035,-5.894411563873291,-0.5790080428123474,false
93245.54489250001,0.679121732711792,0.43606454133987427,-0.09402817487716675,-5.885356903076172,-5.805424690246582,-0.4632464051246643,false
93245.5548505,0.546739935874939,0.32533055543899536,-0.06561106443405151,-5.310725212097168,-5.6300950050354,-0.38645443320274353,false
93245.5648095,0.44003796577453613,0.26194292306900024,0.027759134769439697,-4.598313808441162,-5.553768634796143,-0.44141721725463867,false
93245.57476850001,0.3878394365310669,0.32929062843322754,0.03546994924545288,-3.7785465717315674,-5.583775520324707,-0.5068311095237732,false
93245.58472750001,0.38466358184814453,0.44062843918800354,-0.011929869651794434,-3.014723539352417,-5.646665096282959,-0.5595510005950928,false
93245.59468550001,0.41674214601516724,0.5411582589149475,-0.022731781005859375,-2.4870517253875732,-5.614520072937012,-0.6095443964004517,false
93245.60464450001,0.4627247452735901,0.5712822675704956,0.032955288887023926,-2.416557788848877,-5.599945545196533,-0.8005555272102356,false
93245.61460350001,0.506483793258667,0.5231191515922546,0.12303292751312256,-2.6628878116607666,-5.463573932647705,-1.0327564477920532,false
93245.6245625,0.5413299202919006,0.4533551335334778,0.2028205394744873,-2.8398633003234863,-5.285031795501709,-1.18417489528656,false
93245.63452050001,0.6030392050743103,0.37033289670944214,0.25650936365127563,-3.1866331100463867,-5.223785877227783,-1.488601565361023,false
93245.6444795,0.6751710772514343,0.2617635130882263,0.2677948474884033,-3.66560697555542,-5.160872459411621,-1.8860512971878052,false
93245.6544385,0.6789090037345886,0.1835879385471344,0.31212401390075684,-3.8432869911193848,-5.027650356292725,-2.2606329917907715,false
93245.6643975,0.6541413068771362,0.16904407739639282,0.3875424861907959,-3.797184944152832,-4.857609748840332,-2.571894884109497,false
93245.6743555,0.6053381562232971,0.17904314398765564,0.44680652022361755,-3.5963778495788574,-4.4888458251953125,-2.7718381881713867,false
93245.6843145,0.5114348530769348,0.26082995533943176,0.5249636173248291,-3.527824878692627,-3.864602565765381,-2.9970195293426514,false
93245.6942735,0.3767850399017334,0.35186147689819336,0.5943037271499634,-3.62910795211792,-3.107360601425171,-3.28240966796875,false
93245.70423250001,0.2667067050933838,0.3899672031402588,0.6293898820877075,-4.12197732925415,-2.57224702835083,-3.6286869049072266,false
93245.7141905,0.28108400106430054,0.35916244983673096,0.6726115942001343,-4.633297920227051,-2.317054033279419,-3.997114419937134,false
93245.7241495,0.41988450288772583,0.3075703978538513,0.7137045860290527,-5.039186477661133,-2.0749335289001465,-4.261383056640625,false
93245.73410850001,0.5335385799407959,0.2552921175956726,0.7696024179458618,-4.85932731628418,-1.672424077987671,-4.436480522155762,false
93245.74406750001,0.45777738094329834,0.2556285858154297,0.7803637981414795,-4.120753288269043,-1.0074094533920288,-4.425556659698486,false
93245.7540265,0.22908133268356323,0.3737252354621887,0.771918773651123,-3.2456741333007812,-0.32914358377456665,-4.451042175292969,false
93245.76398450001,0.02212214469909668,0.5523950457572937,0.7490402460098267,-2.6028778553009033,0.2857397198677063,-4.523721694946289,false
93245.77394350001,-0.06048738956451416,0.6634568572044373,0.7491342425346375,-2.497053861618042,0.694087564945221,-4.71813440322876,false
93245.7839025,0.023448050022125244,0.559937596321106,0.8611730933189392,-2.7630722522735596,1.108443260192871,-4.920779228210449,false
93245.7938615,0.18622267246246338,0.34219127893447876,1.033869743347168,-2.885995626449585,1.7579607963562012,-5.009175777435303,false
93245.80381950001,0.24818670749664307,0.1907665729522705,1.1714988946914673,-2.476588010787964,2.4797933101654053,-4.932111740112305,false
93245.8137785,0.21292555332183838,0.17584753036499023,1.1804723739624023,-1.7160221338272095,2.983830451965332,-4.75338077545166,false
93245.8237375,0.21380513906478882,0.26085805892944336,1.0643521547317505,-0.7817891240119934,3.3620712757110596,-4.515784740447998,false
93245.8336965,0.3083263635635376,0.2686110734939575,0.9654456377029419,-0.06877303123474121,3.641852617263794,-4.341256141662598,false
93245.8436545,0.41603562235832214,0.033529818058013916,0.9482184052467346,0.5137450098991394,3.758484125137329,-4.273815631866455,false
93245.8536135,0.5073102116584778,-0.2606375813484192,0.9944813847541809,0.9251123070716858,3.9000918865203857,-4.221956253051758,false
93245.8635725,0.5664892196655273,-0.42500370740890503,1.0278598070144653,1.231082558631897,4.112654685974121,-4.102944374084473,false
93245.87353150001,0.5663690567016602,-0.514424741268158,1.0418026447296143,1.5888395309448242,4.204261302947998,-3.922572374343872,false
93245.8834895,0.5645785331726074,-0.6475281119346619,1.0222437381744385,1.8783166408538818,4.133607387542725,-3.7577781677246094,false
93245.8934485,0.6115881204605103,-0.7647309899330139,0.9496026635169983,1.9801956415176392,4.003833293914795,-3.5708060264587402,false
93245.90340750001,0.6588364243507385,-0.7984364032745361,0.897215723991394,1.870508074760437,3.9822089672088623,-3.2831485271453857,false
93245.91336650001,0.6439758539199829,-0.8626129031181335,0.9044385552406311,1.483476996421814,4.127880573272705,-2.9464504718780518,false
93245.9233245,0.5743392705917358,-0.9975014328956604,0.9071490168571472,0.9530969262123108,4.2945098876953125,-2.6029679775238037,false
93245.93328350001,0.514831006526947,-1.1137292385101318,0.862865686416626,0.5118553042411804,4.322809219360352,-2.2687830924987793,false
93245.94324250001,0.5247646570205688,-1.1821143627166748,0.7563835978507996,0.24601393938064575,4.210478782653809,-1.9305731058120728,false
93245.9532015,0.6006267666816711,-1.1890560388565063,0.5832582712173462,0.13974663615226746,4.071200370788574,-1.582157850265503,false
93245.96315950001,0.6798903942108154,-1.1456654071807861,0.4328346848487854,0.1889103800058365,3.939527750015259,-1.2437679767608643,false
93245.97311850001,0.7171556949615479,-1.0996589660644531,0.3234577775001526,0.2355114370584488,3.924811601638794,-0.872968316078186,false
93245.9830775,0.7112165093421936,-1.0869479179382324,0.27934199571609497,0.33121833205223083,4.011177062988281,-0.508543848991394,false
93245.9930365,0.6848809719085693,-1.0692100524902344,0.30040472745895386,0.49054431915283203,4.070289611816406,-0.17616429924964905,false
93246.0029945,0.6722027063369751,-1.0382232666015625,0.29572027921676636,0.6364622712135315,4.104127883911133,0.17711828649044037,false
93246.0129535,0.6817509531974792,-1.008451223373413,0.27727100253105164,0.717799723148346,4.087404727935791,0.4930972754955292,false
93246.0229125,0.7114417552947998,-1.0073246955871582,0.2738121747970581,0.6662613749504089,4.018350601196289,0.7293307781219482,false
93246.0328715,0.7403169870376587,-1.0274748802185059,0.2740168273448944,0.5433506369590759,3.9941744804382324,1.0081928968429565,false
93246.0428295,0.7560039758682251,-1.0717778205871582,0.29051947593688965,0.3742116689682007,4.045924663543701,1.3069051504135132,false
93246.0527885,0.7751396894454956,-1.1450591087341309,0.334523469209671,0.2443961352109909,4.089389801025391,1.5388380289077759,false
93246.06274750001,0.8030735850334167,-1.1846764087677002,0.3436461389064789,0.12942513823509216,4.060739040374756,1.7512565851211548,false
93246.07270650001,0.8495795726776123,-1.1650248765945435,0.3209967017173767,-0.0858570784330368,3.9417073726654053,1.9770591259002686,false
93246.0826645,0.9222214221954346,-1.105384349822998,0.296725869178772,-0.4170789420604706,3.7272090911865234,2.1374313831329346,false
93246.09262350001,1.0038868188858032,-1.0256823301315308,0.2540997266769409,-0.9084340333938599,3.444363832473755,2.2785470485687256,false
93246.10258250001,1.0769824981689453,-0.9578373432159424,0.16767142713069916,-1.498831868171692,3.0878541469573975,2.397429943084717,false
93246.1125415,1.131837248802185,-0.9091965556144714,0.05899965763092041,-1.8893966674804688,2.6047463417053223,2.5580172538757324,false
93246.12249950001,1.1567349433898926,-0.8936039805412292,-0.08457660675048828,-2.2097859382629395,2.1483280658721924,2.839423894882202,false
93246.13245850001,1.1337608098983765,-0.9684798121452332,-0.19251298904418945,-2.486074924468994,1.8761764764785767,3.131608486175537,false
93246.1424175,1.0582947731018066,-1.0366742610931396,-0.18477141857147217,-2.44295334815979,1.7743767499923706,3.3448612689971924,false
93246.1523765,0.9695835709571838,-0.969899594783783,-0.15981438755989075,-2.15476131439209,1.776662826538086,3.527661085128784,false
93246.16233529168,0.9228634238243103,-0.8046867847442627,-0.1730363368988037,-1.6680395603179932,1.7159384489059448,3.6858761310577393,false
93246.17229429167,0.955741822719574,-0.6062539219856262,-0.19300857186317444,-1.331524133682251,1.584135890007019,3.7269182205200195,false
93246.18225329167,1.0398303270339966,-0.3840736746788025,-0.25546446442604065,-1.3596162796020508,1.263479232788086,3.545459508895874,false
93246.19221229167,1.1537058353424072,-0.08531790971755981,-0.41358163952827454,-1.2230626344680786,0.7361133694648743,3.185141086578369,false
93246.20217029167,1.2802170515060425,0.23139971494674683,-0.7155239582061768,-1.203756332397461,0.26749318838119507,2.7429301738739014,false
93246.21212929167,1.3179941177368164,0.341033399105072,-1.0479817390441895,-1.5534871816635132,0.004781419411301613,2.3398618698120117,false
93246.22208829167,1.1383427381515503,0.2656099796295166,-1.1972906589508057,-1.8047815561294556,-0.18179871141910553,2.101290464401245,false
93246.23204729168,0.8023684620857239,0.16347342729568481,-1.2593743801116943,-1.871109962463379,-0.33709242939949036,2.146444320678711,false
93246.24200629168,0.49313774704933167,0.07497698068618774,-1.2722587585449219,-1.4575614929199219,-0.3812483847141266,2.3729958534240723,false
93246.25196429167,0.29632067680358887,0.2042965292930603,-1.1918376684188843,-0.7216469645500183,-0.39587950706481934,2.5304882526397705,false
93246.26192329168,0.25436416268348694,0.5924561023712158,-1.1464903354644775,0.1482549011707306,-0.5222923159599304,2.4946162700653076,false
93246.27188229168,0.3905124068260193,1.079651951789856,-1.1122028827667236,0.8639647364616394,-0.8465129733085632,2.2911264896392822,true
93246.28184129167,0.6408527493476868,1.445486068725586,-1.1135728359222412,1.1929889917373657,-1.2510716915130615,2.100806951522827,false
93246.29179929168,0.8442200422286987,1.555119276046753,-1.1221247911453247,0.8373560905456543,-1.6168229579925537,2.1281516551971436,false
93246.30175829167,0.9002120494842529,1.4192415475845337,-1.039629578590393,0.20185638964176178,-1.9964134693145752,2.363485097885132,false
93246.31171729167,0.8524850606918335,1.1987898349761963,-0.9029166102409363,0.019095107913017273,-2.298102378845215,2.764186382293701,false
93246.32167629167,0.8324174880981445,0.9897263050079346,-0.8248059153556824,-0.28922802209854126,-2.4935927391052246,3.1565258502960205,false
93246.33163429167,0.9365338087081909,0.8010275363922119,-0.6247284412384033,-0.6400430798530579,-2.645375967025757,3.2738821506500244,false
93246.34159329167,1.170240044593811,0.9018345475196838,-0.2473244071006775,-0.9167196750640869,-2.802642583847046,3.1096291542053223,false
93246.35155229167,1.4603164196014404,1.1479692459106445,0.0378609299659729,-0.994727373123169,-3.221079111099243,2.6820523738861084,false
93246.36151129167,1.7155147790908813,1.2281432151794434,0.19749099016189575,-1.1091561317443848,-4.143796443939209,2.276414394378662,false
93246.37146929167,1.9065678119659424,1.163846492767334,0.2286463975906372,-1.4416823387145996,-4.907837390899658,2.3462376594543457,false
93246.38142829167,2.0246927738189697,1.0742703676223755,0.153041809797287,-2.2908213138580322,-5.255177974700928,2.5541656017303467,false
93246.39138729167,2.004838466644287,0.9779089093208313,0.28142356872558594,-3.225661277770996,-5.5350236892700195,2.5727460384368896,false
93246.40134629168,1.8938374519348145,0.923992395401001,0.6291073560714722,-3.853074073791504,-5.867641448974609,2.416637420654297,false
93246.41130429167,1.7706643342971802,0.9211755990982056,0.8940906524658203,-4.118991851806641,-6.304091930389404,2.244614839553833,false
93246.42126329168,1.644071102142334,0.9071409106254578,1.002017855644226,-4.263204097747803,-6.860995769500732,1.928325891494751,false
93246.43122229168,1.444454312324524,0.8731372356414795,1.0635491609573364,-4.027726173400879,-7.32616662979126,1.5702482461929321,false
93246.44118129167,1.1229416131973267,0.8533345460891724,1.0886592864990234,-3.2552683353424072,-7.605593681335449,1.2853037118911743,false
93246.45113929168,0.6860731244087219,0.7735549211502075,0.9983807802200317,-2.487590789794922,-7.7160468101501465,1.1145801544189453,false
93246.46109829168,0.18134045600891113,0.6153185367584229,0.889426589012146,-1.9107807874679565,-7.535536766052246,0.8902881145477295,false
93246.47105729167,-0.35023927688598633,0.5348774194717407,0.8812151551246643,-2.096278667449951,-6.543978691101074,0.4749854803085327,false
93246.48101629167,-0.9048863053321838,0.502795398235321,1.0460306406021118,-2.568072557449341,-4.684356689453125,-0.2796165943145752,false
93246.49097429168,-1.4717767238616943,0.4877721071243286,1.234288215637207,-2.6328494548797607,-2.688845157623291,-0.7027193903923035,false
93246.50093329167,-1.9357448816299438,0.4248897433280945,1.241722583770752,-2.304330825805664,-1.6705784797668457,-0.9417977929115295,false
93246.51089229167,-2.0002737045288086,0.2949039936065674,1.066483736038208,-1.7732586860656738,-1.5021324157714844,-1.1276885271072388,false
93246.52085129167,-1.6094521284103394,0.3036941885948181,0.8482249975204468,-1.3571432828903198,-1.5438954830169678,-1.2812819480895996,false
93246.53081029168,-1.0892075300216675,0.3167620897293091,0.8028584718704224,-1.2732294797897339,-1.5116866827011108,-1.4432411193847656,false
93246.54076829167,-0.7368420958518982,0.2227240800857544,0.9137190580368042,-0.8999584913253784,-1.2271260023117065,-1.5455906391143799,false
93246.55072729167,-0.6223298907279968,0.06664282083511353,1.025388240814209,-1.1612831354141235,-0.5522202849388123,-1.6879911422729492,false
93246.56068629168,-0.6809526085853577,-0.29078930616378784,1.0981801748275757,-1.693371057510376,0.14218148589134216,-2.0314371585845947,false
93246.57064529168,-0.7919835448265076,-0.5040361285209656,1.1628570556640625,-0.9737522006034851,0.4959576725959778,-1.9753341674804688,false
93246.58060329167,-0.8193373680114746,-0.3099355101585388,1.0540955066680908,-0.40775495767593384,0.5638093948364258,-1.952498435974121,false
93246.59056229168,-0.700977087020874,-0.18542319536209106,0.8523750305175781,0.746277928352356,0.9066985249519348,-1.8894613981246948,false
93246.60052129168,-0.6726126670837402,-0.09560948610305786,0.806120753288269,2.1623244285583496,1.5928494930267334,-1.6880433559417725,false
93246.61048029167,-0.8202240467071533,-0.36036914587020874,0.9578860998153687,2.7424252033233643,2.3373327255249023,-1.6112558841705322,false
93246.62043829168,-1.0053980350494385,-0.7988808751106262,1.014445424079895,2.758127212524414,3.0859498977661133,-1.5968669652938843,false
93246.63039729168,-1.052514910697937,-0.9681106805801392,1.2302823066711426,2.170959711074829,3.472269296646118,-1.6608827114105225,false
93246.64035629167,-0.8889050483703613,-1.089802622795105,1.3590675592422485,1.0867503881454468,3.616669178009033,-1.7389633655548096,false
93246.65031529167,-0.6256792545318604,-1.2132269144058228,1.299747109413147,0.06580116599798203,3.991682529449463,-1.6699259281158447,false
93246.66027329167,-0.4369587302207947,-1.368050217628479,1.212013840675354,-0.4326919913291931,3.7139320373535156,-1.7595176696777344,false
93246.67023229167,-0.2978197932243347,-1.4514601230621338,0.8961005210876465,-1.7458064556121826,3.924558401107788,-1.3658661842346191,false
93246.68019129167,-0.1327539086341858,-1.3977489471435547,0.6696632504463196,-0.5940259099006653,4.275085926055908,-0.873702883720398,false
93246.69015029167,-0.14922773838043213,-1.400986671447754,0.6265358328819275,0.7300202250480652,3.0764994621276855,-0.942359983921051,false
93246.70010829167,-0.11977308988571167,-1.5705641508102417,-0.2224332094192505,0.6186580657958984,3.3679087162017822,-0.6587788462638855,false
93246.71006729167,-0.036501288414001465,-1.225228190422058,0.07178521156311035,1.3685696125030518,4.375634670257568,-0.801377534866333,false
93246.72002629167,-0.2667160928249359,-0.6721142530441284,0.5791664123535156,1.6723058223724365,5.044426441192627,-0.591187059879303,false
93246.72998529168,-0.4939816892147064,-0.6511796712875366,0.1236712634563446,1.7160320281982422,5.113905906677246,-0.33826106786727905,false
93246.73994329167,-0.24704986810684204,-0.6908770799636841,0.06730246543884277,0.6964001655578613,5.118803977966309,-0.0756583884358406,false
93246.74990229167,0.24804255366325378,-0.6039984822273254,0.09899899363517761,-0.8831733465194702,5.325601577758789,-0.15827231109142303,false
93246.75986129168,0.6808643341064453,-0.3247601389884949,0.19100573658943176,-0.14742563664913177,4.879028797149658,0.06980574876070023,false
93246.76982029167,1.1337822675704956,0.1095152497291565,-0.18932664394378662,0.06221814081072807,3.506878614425659,0.7151623964309692,false
93246.77977929167,1.5969569683074951,-0.03830653429031372,-0.5748645067214966,0.7653688788414001,1.8223007917404175,1.1124482154846191,false
93246.78973729168,1.9735729694366455,0.09018892049789429,-0.5802811980247498,1.7430777549743652,0.34744030237197876,1.2118512392044067,false
93246.79969629167,2.1777987480163574,0.48214834928512573,-0.8563368320465088,2.5569822788238525,-0.438020259141922,1.9118282794952393,false
93246.80965529167,2.233841896057129,0.9841839671134949,-1.0170412063598633,3.4486899375915527,-0.5202447772026062,2.8426058292388916,true
93246.81961429167,2.227181911468506,1.4253017902374268,-0.9802654981613159,2.883294105529785,-0.5277377963066101,2.726886749267578,false
93246.82957229167,2.156254768371582,1.6050903797149658,-0.8194715976715088,1.8776425123214722,-1.264739990234375,2.194664716720581,false
93246.83953129167,2.0394034385681152,1.5537031888961792,-0.7150300741195679,0.13693572580814362,-3.2278690338134766,1.3504573106765747,false
93246.84949029167,2.057888984680176,1.0558810234069824,-0.8468518257141113,-1.955409288406372,-5.509397506713867,0.7698074579238892,false
93246.85944929167,2.1979191303253174,0.7413970232009888,-0.8837970495223999,-3.2683818340301514,-7.762285232543945,1.1440867185592651,false
93246.86940729167,2.2563529014587402,0.7286134958267212,-0.9172515869140625,-4.260646820068359,-6.487261772155762,1.5338711738586426,false
93246.87936629167,1.8355108499526978,0.6663998961448669,-0.8321129083633423,-5.345059871673584,-5.817863941192627,2.295722007751465,false
93246.88932529168,0.7661880254745483,0.5876601934432983,-0.5407322645187378,-4.36006498336792,-4.932826042175293,3.4034109115600586,false
93246.89928429168,0.4822678565979004,0.9367766976356506,-0.28969070315361023,-3.2592246532440186,-3.461452007293701,3.4957289695739746,false
93246.90924229167,0.26566165685653687,1.0561587810516357,-0.3002113103866577,-3.416698694229126,-3.095405340194702,1.3847612142562866,false
93246.91920129168,-0.09010231494903564,1.0197137594223022,0.007609367370605469,-3.2485251426696777,-4.773521423339844,-1.3097572326660156,false
93246.92916029168,-0.2815384864807129,1.34308660030365,0.4909323751926422,-1.9526410102844238,-5.6552653312683105,-1.0417063236236572,false
93246.93911929167,-0.20165640115737915,1.6836867332458496,0.32617560029029846,-0.8035323619842529,-5.650186538696289,-0.1600458323955536,false
93246.94907829167,-0.08019167184829712,1.2945045232772827,0.419345498085022,-0.1774921864271164,-5.337382793426514,-0.2629261314868927,false
93246.95903629168,-0.3318885564804077,0.5715708136558533,0.9012526273727417,-0.5853478908538818,-4.831663131713867,-1.0868180990219116,false
93246.96899529167,-0.693231999874115,0.12198185920715332,1.0503032207489014,-0.8875207901000977,-3.8019907474517822,-1.719885230064392,false
93246.97895429167,-0.9025449752807617,-0.11420631408691406,0.9078041315078735,-0.8086470365524292,-2.5486819744110107,-1.7624646425247192,false
93246.98891329167,-0.9660012722015381,-0.3704261779785156,0.8117083311080933,-1.0200506448745728,-1.413292646408081,-1.64963960647583,false
93246.99887129167,-0.9556998610496521,-0.5739074945449829,1.0555005073547363,-1.787901520729065,-0.543317437171936,-1.706563949584961,false
93247.00883029167,-0.9887962937355042,-0.694517970085144,1.539008378982544,-2.3620975017547607,0.14885517954826355,-1.790810465812683,false
93247.01878929167,-0.9978585243225098,-0.7768552303314209,1.5241851806640625,-2.4084725379943848,0.8140988945960999,-1.6965152025222778,false
93247.02874829168,-0.9218689203262329,-0.8727089166641235,1.2974812984466553,-2.230027914047241,1.305219054222107,-1.677276611328125,false
93247.03870629167,-0.7913196086883545,-0.960552453994751,1.3603590726852417,-1.2445175647735596,1.294479489326477,-1.6309126615524292,false
93247.04866529167,-0.6609759330749512,-0.9884986281394958,1.1828773021697998,-0.4514327347278595,1.3727766275405884,-1.3590824604034424,false
93247.05862429168,-0.5779101848602295,-0.9803001880645752,0.7465698719024658,-0.4370993971824646,1.6322619915008545,-1.1098049879074097,false
93247.06858329168,-0.5366275906562805,-0.8967601656913757,0.5957872867584229,-0.18189479410648346,1.9474865198135376,-1.0569941997528076,false
93247.07854129167,-0.5433701872825623,-0.8695859313011169,0.6493193507194519,-0.29381561279296875,2.355234146118164,-0.9679555892944336,false
93247.08850029168,-0.5643860101699829,-1.011654257774353,0.6604713201522827,-0.09994412958621979,2.8773505687713623,-0.8786557912826538,false
93247.09845929168,-0.5702363848686218,-1.1548601388931274,0.8434524536132812,-0.032527875155210495,3.5566999912261963,-0.8288013935089111,false
93247.10841829167,-0.5714594721794128,-1.27876877784729,0.8388403654098511,-0.2875271439552307,4.142316818237305,-0.7567008137702942,false
93247.11837729167,-0.5450196862220764,-1.2976040840148926,0.6560548543930054,-0.038131363689899445,4.633031845092773,-0.5299028158187866,false
93247.12833529167,-0.47102779150009155,-1.22890043258667,0.49899375438690186,0.7794165015220642,4.96469259262085,-0.32177725434303284,false
93247.13829429167,-0.34153667092323303,-1.1703388690948486,0.31037387251853943,1.3648544549942017,5.186237812042236,-0.33636724948883057,false
93247.14825329167,-0.22409024834632874,-1.0819427967071533,0.08471894264221191,1.6818907260894775,5.614949703216553,-0.09063685685396194,false
93247.15821154167,-0.15232864022254944,-0.9539417624473572,0.06179937720298767,1.5525822639465332,5.998973369598389,0.10748341679573059,false
93247.16816954168,-0.07944834232330322,-0.8363302946090698,0.10439059138298035,1.2407410144805908,6.017463684082031,0.7811899781227112,false
93247.17812854167,-0.027137041091918945,-0.7567040324211121,0.047295331954956055,0.6375998854637146,6.367992401123047,1.9421812295913696,false
93247.18808754167,0.018058568239212036,-0.727959156036377,0.10739278793334961,0.7928195595741272,6.646952152252197,3.2670700550079346,false
93247.19804654167,0.11224386096000671,-0.6899031400680542,0.21727263927459717,2.7509121894836426,5.134226322174072,3.229747772216797,false
93247.20800454167,0.2667117118835449,-0.5921664834022522,0.03626292943954468,4.4531779289245605,1.5630029439926147,-0.08309239894151688,false
93247.21796354167,0.6359937191009521,-0.2365991473197937,-0.653362512588501,3.6478283405303955,-1.340395450592041,-4.453714847564697,false
93247.22792254167,0.9813938140869141,0.32503920793533325,-1.219711184501648,3.584597587585449,-3.8719840049743652,-7.3009185791015625,false
93247.23788154167,0.6823307275772095,0.5284259915351868,-0.8381410837173462,1.7157318592071533,-3.7597365379333496,-6.97911262512207,false
93247.24784054168,0.7771249413490295,0.8340606093406677,-1.019639492034912,-2.381934404373169,8.360733985900879,4.499156475067139,false
93247.25779854167,1.17812180519104,1.4851089715957642,-1.2389740943908691,-2.749162435531616,10.59778118133545,15.193036079406738,true
93247.26775754167,2.1145339012145996,1.210151195526123,-0.613125741481781,-4.159463882446289,-0.668298065662384,12.809941291809082,false
93247.27771654168,3.4147090911865234,0.5037322044372559,-1.6796104907989502,-6.426403999328613,-0.426384299993515,3.896521806716919,false
93247.28767554167,4.509918212890625,1.3535144329071045,-2.0311474800109863,-1.9372280836105347,-3.6321396827697754,-1.0197516679763794,false
93247.29763354168,5.173676013946533,1.771058201789856,0.7173827886581421,-2.102734088897705,-7.559012413024902,0.3071151375770569,false
93247.30759254168,4.726855278015137,0.9852548837661743,0.28605562448501587,-3.8096771240234375,-8.571011543273926,0.504591166973114,false
93247.31755154167,2.027021646499634,0.547558605670929,0.04720747470855713,-5.338252067565918,-8.39916706085205,0.9331589341163635,false
93247.32751054167,0.5504776835441589,1.1900707483291626,-0.10269302129745483,-3.994853973388672,-5.330011367797852,2.066344738006592,false
93247.33746854168,0.16944366693496704,1.4668854475021362,-0.21437573432922363,-1.9406193494796753,-3.83601975440979,1.7624086141586304,false
93247.34742754167,0.02908170223236084,1.9290947914123535,-0.5360476970672607,-0.32146400213241577,-5.247953414916992,0.16816453635692596,false
93247.35738654167,-0.42201608419418335,2.06675124168396,-0.2085806429386139,0.10175149887800217,-5.218804359436035,-0.0688614696264267,false
93247.36734554167,-0.7850809693336487,1.6289594173431396,0.3532024621963501,-0.8660199642181396,-4.521538734436035,0.2706122100353241,false
93247.37730354167,-0.7578845620155334,0.948303759098053,0.7324742078781128,-2.151834726333618,-4.34111213684082,0.10655024647712708,false
93247.38726254167,-0.7244446277618408,0.505612313747406,1.0262786149978638,-3.1303486824035645,-4.424337863922119,-0.8615849614143372,false
93247.39722154167,-0.7748850584030151,0.3122016191482544,1.0009381771087646,-3.42704439163208,-3.8135986328125,-1.7058340311050415,false
93247.40718054168,-0.8633385896682739,0.22341406345367432,1.0687164068222046,-3.0037479400634766,-3.0464582443237305,-2.129605770111084,false
93247.41713954168,-0.8875517249107361,0.07223719358444214,1.0910111665725708,-2.1859703063964844,-2.5344057083129883,-2.308012008666992,false
93247.42709754167,-0.8458607196807861,-0.12037163972854614,1.0599408149719238,-1.5296937227249146,-2.0581459999084473,-2.3185698986053467,false
93247.43705654168,-0.8284170031547546,-0.29377102851867676,1.1079493761062622,-1.51377272605896,-1.3037819862365723,-2.303483486175537,false
93247.44701554168,-0.8185532093048096,-0.47493845224380493,1.1264736652374268,-2.477750778198242,-0.5555415749549866,-2.429501533508301,false
93247.45697454167,-0.8258009552955627,-0.6645240783691406,1.2240630388259888,-3.746718168258667,0.1958872526884079,-2.6774301528930664,false
93247.46693254168,-0.8613220453262329,-0.9042311906814575,1.550154685974121,-3.4906973838806152,1.0639598369598389,-2.5012290477752686,false
93247.47689154168,-0.9205806851387024,-1.2631359100341797,1.7436755895614624,-1.5816879272460938,1.7099777460098267,-2.1825358867645264,false
93247.48685054167,-0.9125599265098572,-1.7168607711791992,1.4025108814239502,-1.2740370035171509,2.2919321060180664,-1.6669288873672485,false
93247.49680954167,-0.8316264748573303,-2.03710675239563,0.7149688005447388,-0.8645969033241272,2.903137445449829,-1.1187652349472046,false
93247.50676754168,-0.687930166721344,-1.9177510738372803,0.5372306108474731,0.411040723323822,3.628164768218994,-0.568999707698822,false
93247.51672654167,-0.693617045879364,-1.543262243270874,0.7033125162124634,0.7521427273750305,4.349677562713623,-0.0732862800359726,false
93247.52668554167,-0.7051388621330261,-1.3876237869262695,0.7258293032646179,0.42525726556777954,4.920688152313232,0.4354664385318756,false
93247.53664454167,-0.6584742665290833,-1.210841178894043,0.8951586484909058,-0.2842477858066559,5.017358779907227,0.7373653650283813,false
93247.54660354168,-0.507967472076416,-1.1076312065124512,0.90876305103302,-0.7063612341880798,4.640242576599121,1.0794329643249512,false
93247.55656154167,-0.30458348989486694,-1.2543654441833496,0.7633507251739502,-0.7665055990219116,5.066078186035156,1.3534023761749268,false
93247.56652054167,-0.05338233709335327,-1.5302517414093018,0.34253138303756714,-1.7595906257629395,5.509273529052734,0.5717398524284363,false
93247.57647954168,0.07856014370918274,-1.4855040311813354,-0.12446123361587524,-0.7040245532989502,5.595884323120117,1.1856578588485718,false
93247.58643854168,-0.008882731199264526,-1.1946990489959717,0.033712685108184814,0.2510741949081421,5.800985813140869,1.4473680257797241,false
93247.59639654167,0.19949045777320862,-1.0362588167190552,-0.36889511346817017,1.2295390367507935,6.64898157119751,1.9438685178756714,false
93247.60635554168,0.3047306537628174,-0.5827359557151794,-0.7531624436378479,2.382554769515991,6.363658905029297,2.171142816543579,false
93247.61631454168,0.23886319994926453,-0.41314899921417236,-0.42132651805877686,3.1375670433044434,5.962255477905273,2.7260684967041016,false
93247.62627354167,0.7440277934074402,-0.1819826364517212,-0.4431754946708679,2.5752763748168945,4.162579536437988,2.3500170707702637,false
93247.63623154168,1.702091097831726,0.25225913524627686,-0.41060131788253784,2.4825308322906494,3.114837884902954,2.525615930557251,false
93247.64619054167,2.2765238285064697,0.6866042613983154,-0.1787087321281433,2.9837067127227783,2.6085026264190674,2.8494222164154053,false
93247.65614954167,2.473130464553833,0.945620596408844,-0.7159286737442017,2.8028640747070312,2.109144449234009,3.4442644119262695,true
93247.66610854167,2.335052013397217,0.9971576929092407,-1.209732174873352,1.7077358961105347,1.2500311136245728,4.279417991638184,false
93247.67606654167,2.46498441696167,1.1391469240188599,-1.2185481786727905,0.845052182674408,-0.3694573640823364,4.701958656311035,false
93247.68602554167,2.836916923522949,1.2399928569793701,-0.911033570766449,1.2470723390579224,-2.2973198890686035,3.615797996520996,false
93247.69598454167,3.1365838050842285,1.079007625579834,-0.5724762678146362,0.732290506362915,-3.9381062984466553,2.4119720458984375,false
93247.70594354167,3.1168861389160156,0.8817326426506042,-0.45000141859054565,-0.7570950984954834,-4.6995158195495605,1.6475226879119873,false
93247.71590254168,2.8514561653137207,1.0449823141098022,-0.38365262746810913,-2.391481399536133,-4.876700401306152,0.9626032114028931,false
93247.72586054167,2.3008463382720947,1.245286226272583,-0.5842946767807007,-3.1683859825134277,-5.3954877853393555,0.4648277759552002,false
93247.73581954167,1.6483032703399658,1.2918671369552612,-0.7134113907814026,-2.701117753982544,-6.117964267730713,0.06355742365121841,false
93247.74577854168,1.2152044773101807,1.3129394054412842,-0.5337057709693909,-2.068392515182495,-6.411696434020996,0.0431501530110836,false
93247.75573754167,0.8542867302894592,1.2946738004684448,-0.36840569972991943,-1.7230337858200073,-6.7598066329956055,0.2742246687412262,false
93247.76569554168,0.3829679489135742,1.2964450120925903,-0.11706745624542236,-1.5025428533554077,-6.76339864730835,0.6640595197677612,false
93247.77565454168,-0.05966806411743164,1.3325754404067993,0.13011834025382996,-1.0583759546279907,-6.17918062210083,0.8984766602516174,false
93247.78561354167,-0.3984013795852661,1.3048694133758545,0.25651776790618896,-0.6242421865463257,-5.293046474456787,0.599862813949585,false
93247.79557254167,-0.6943404674530029,1.0953776836395264,0.42839908599853516,-1.0979200601577759,-4.370057582855225,-0.41312530636787415,false
93247.80553054168,-0.8860399723052979,0.7664883136749268,0.7118591070175171,-2.561845064163208,-3.6311769485473633,-1.6895999908447266,false
93247.81548954167,-0.9753788113594055,0.4454854726791382,0.9704596996307373,-3.3487210273742676,-2.727388858795166,-2.1798298358917236,false
93247.82544854167,-0.9478856921195984,0.1733335256576538,1.2351547479629517,-2.421473979949951,-2.799703598022461,-2.3650739192962646,false
93247.83540754167,-0.7754810452461243,-0.11028128862380981,1.3834068775177002,-1.0459489822387695,-3.1929402351379395,-2.7578952312469482,false
93247.84536654167,-0.5666597485542297,-0.4179879426956177,1.3777269124984741,-0.7507513761520386,-3.010188341140747,-2.8327138423919678,false
93247.85532454167,-0.5801719427108765,-0.5597966313362122,1.4153316020965576,-1.0832836627960205,-2.9241943359375,-3.0292928218841553,false
93247.86528354167,-0.7075048089027405,-0.548638641834259,1.3395280838012695,-1.8136998414993286,-2.2186410427093506,-2.8568496704101562,false
93247.87524254168,-0.8753818869590759,-0.5488530993461609,1.3281186819076538,-2.7819862365722656,-1.318577527999878,-2.7789056301116943,false
93247.88520154168,-0.95290207862854,-0.7205718159675598,1.4733493328094482,-3.4807238578796387,-0.3714616000652313,-2.9066221714019775,false
93247.89515954167,-1.0114308595657349,-1.0299961566925049,1.5668941736221313,-2.3953874111175537,0.8936522603034973,-3.065753936767578,false
93247.90511854168,-1.0622566938400269,-1.4082505702972412,1.4765101671218872,-0.9999889731407166,1.9390305280685425,-2.4005556106567383,false
93247.91507754168,-1.0631749629974365,-1.7983589172363281,1.1116507053375244,-0.24938702583312988,2.1293702125549316,-1.5606530904769897,false
93247.92503654167,-0.943733274936676,-1.9712743759155273,0.7597334384918213,0.4117715060710907,2.988463878631592,-0.47241488099098206,false
93247.93499454168,-0.8383752703666687,-1.7417724132537842,0.47478818893432617,0.2050243616104126,4.084089756011963,0.0548098050057888,false
93247.94495354168,-0.8052850961685181,-1.5044530630111694,0.5213351249694824,0.10836786031723022,5.156562805175781,0.4611298739910126,false
93247.95491254167,-0.8463077545166016,-1.3943240642547607,1.0277793407440186,-0.1306210160255432,5.639707565307617,1.0169028043746948,false
93247.96487154167,-0.7450627684593201,-1.301518440246582,1.0661826133728027,-0.3865199089050293,5.135416507720947,1.4168944358825684,false
93247.97483054167,-0.459574818611145,-1.3417445421218872,0.7559968829154968,-0.19639189541339874,4.684542655944824,1.3005175590515137,false
93247.98478854167,-0.12288910150527954,-1.4959467649459839,0.5590654611587524,-0.6561272740364075,4.582327365875244,0.4904502332210541,false
93247.99474754167,0.12223362922668457,-1.5117104053497314,0.25381916761398315,0.23914778232574463,4.728815078735352,0.6322134733200073,false
93248.00470654167,0.11867523193359375,-1.2818468809127808,0.09101790189743042,1.3211426734924316,5.159696102142334,1.1386387348175049,false
93248.01466554168,0.06822943687438965,-1.0833866596221924,-0.27661454677581787,2.428591251373291,5.9833455085754395,1.652477741241455,false
93248.02462354167,0.046459704637527466,-0.7516460418701172,-0.651378333568573,3.189251661300659,6.034374713897705,2.8313064575195312,false
93248.03458254167,0.018839746713638306,-0.5536074042320251,-0.4785478711128235,2.8778982162475586,5.84241247177124,3.5821712017059326,false
93248.04454154168,0.7198185920715332,-0.21299785375595093,-0.546414852142334,2.950371503829956,3.639597177505493,3.0111918449401855,false
93248.05450054168,1.9403148889541626,0.30644822120666504,-0.28893864154815674,3.9791605472564697,2.0537216663360596,2.4105782508850098,false
93248.06445854167,3.0948550701141357,0.9072386026382446,-0.12671059370040894,4.6356520652771,1.3040344715118408,2.4261882305145264,true
93248.07441754168,3.229696273803711,1.2607462406158447,-0.8725830316543579,3.909832715988159,0.9495382905006409,3.924779176712036,false
93248.08437654168,2.3462672233581543,1.3043200969696045,-1.4283727407455444,1.7588475942611694,-0.30887743830680847,4.97255277633667,false
93248.09433554167,2.184014320373535,1.2433967590332031,-1.4995125532150269,0.2777244746685028,-2.0375475883483887,4.54595947265625,false
93248.10429454167,2.6034436225891113,1.1139501333236694,-1.3252443075180054,-0.15715882182121277,-3.8443145751953125,2.754363536834717,false
93248.11425254167,3.1006791591644287,0.8651530742645264,-1.0862619876861572,-0.9824241995811462,-5.010641098022461,1.6870182752609253,false
93248.12421154167,3.3348546028137207,0.8601874113082886,-0.8435910940170288,-2.1377501487731934,-4.801155090332031,0.8989552855491638,false
93248.13417054167,2.9000325202941895,1.1795579195022583,-0.8712023496627808,-2.712822437286377,-4.964597225189209,0.6361897587776184,false
93248.14412954167,1.858673334121704,1.502621054649353,-0.992283821105957,-2.4224040508270264,-5.520612716674805,0.2044953554868698,false
93248.15408754167,1.2218279838562012,1.6048964262008667,-0.694092333316803,-2.4302306175231934,-5.917154788970947,0.2768082618713379,false
93248.164047,0.7680609822273254,1.6458368301391602,-0.4880991280078888,-3.0244944095611572,-6.089365482330322,0.3894141614437103,false
93248.174006,0.23915231227874756,1.7163512706756592,-0.2340846061706543,-2.9657275676727295,-5.484644889831543,0.45073068141937256,false
93248.183965,-0.24125832319259644,1.5433449745178223,0.03241823613643646,-2.707641839981079,-4.8204450607299805,-0.06010489538311958,false
93248.193923,-0.7143352627754211,1.1109580993652344,0.3202134370803833,-3.0970497131347656,-4.703376770019531,-1.6649134159088135,false
93248.203882,-0.9823305010795593,0.7119938135147095,0.7495481371879578,-3.676774024963379,-3.9868526458740234,-2.6218605041503906,false
93248.213841,-1.1250334978103638,0.5249648690223694,1.1695512533187866,-3.5895392894744873,-3.255735158920288,-2.684940814971924,false
93248.2238,-1.0357626676559448,0.24074512720108032,1.3123873472213745,-2.9725935459136963,-2.7449560165405273,-2.3683724403381348,false
93248.23375900001,-0.8230180740356445,-0.11271494626998901,1.235499382019043,-2.2245116233825684,-2.3008694648742676,-2.527003288269043,false
93248.243717,-0.5608276724815369,-0.44919276237487793,1.1728332042694092,-1.4160512685775757,-1.6977545022964478,-2.938384771347046,false
93248.25367600001,-0.43997567892074585,-0.6677392721176147,1.2990608215332031,-0.9301864504814148,-0.8883444666862488,-2.951004981994629,false
93248.26363500001,-0.5224297642707825,-0.7720349431037903,1.3004730939865112,-1.056968331336975,-0.04800449684262276,-2.6120047569274902,false
93248.273594,-0.7050229907035828,-0.8258025050163269,1.2679555416107178,-1.7627025842666626,0.5454223155975342,-2.1527137756347656,false
93248.28355200001,-0.8291329145431519,-0.9797312021255493,1.367716908454895,-1.779168725013733,1.1190792322158813,-1.748913049697876,false
93248.29351100001,-0.8787217140197754,-1.2749414443969727,1.6057608127593994,-0.5372990369796753,1.5774521827697754,-1.7887070178985596,false
93248.30347,-0.9293279647827148,-1.7699644565582275,1.645477533340454,-0.03621115908026695,2.4772143363952637,-1.3748440742492676,false
93248.313429,-0.9542140364646912,-2.303333282470703,1.2004693746566772,-1.6113847494125366,2.546569585800171,-1.057934045791626,false
93248.32338700001,-0.7675278186798096,-2.4820828437805176,0.6886868476867676,-0.8697356581687927,3.3718678951263428,-0.8011509776115417,false
93248.333346,-0.5637461543083191,-2.039372682571411,0.7683117389678955,-0.19166359305381775,4.204617023468018,-0.3089263141155243,false
93248.343305,-0.5662789344787598,-1.656813621520996,0.4377119541168213,0.259166955947876,4.3171257972717285,0.5038672089576721,false
93248.353264,-0.5520837306976318,-1.4263172149658203,0.5334276556968689,-0.007555079180747271,4.305427551269531,0.8817274570465088,false
93248.36322300001,-0.3986223340034485,-1.1898078918457031,0.5825690031051636,0.010721663013100624,4.221731185913086,1.217021107673645,false
93248.373181,-0.25969600677490234,-1.1015918254852295,0.5059973001480103,0.23427031934261322,4.213940620422363,1.1092430353164673,false
93248.38314,-0.044310033321380615,-1.1572239398956299,0.18644148111343384,-0.03948984295129776,4.184508323669434,0.4317619502544403,false
93248.39309900001,0.0513724684715271,-1.1953985691070557,-0.14163973927497864,1.1316472291946411,4.620179653167725,0.8904336094856262,false
93248.40305800001,-0.06297928094863892,-1.0860730409622192,-0.1855379343032837,1.5170329809188843,5.101099491119385,1.4178316593170166,false
93248.413016,-0.05137735605239868,-0.8631622195243835,-0.5508972406387329,2.040362596511841,5.419003963470459,2.0674893856048584,false
93248.42297500001,-0.038175880908966064,-0.5592148303985596,-0.5965129137039185,2.587996482849121,5.017866134643555,2.719581127166748,false
93248.43293400001,0.054825931787490845,-0.39557260274887085,-0.37132173776626587,3.7397513389587402,4.235708236694336,3.0757527351379395,false
93248.442893,0.9189703464508057,0.05614382028579712,-0.6520289182662964,4.164475917816162,2.2519593238830566,1.5222598314285278,false
93248.45285100001,2.1762855052948,0.6946142911911011,-0.7851381301879883,3.9410860538482666,1.2733092308044434,1.3436541557312012,false
93248.46281000001,2.8113760948181152,1.4057590961456299,-0.7642546892166138,4.283421516418457,1.4108390808105469,2.9952456951141357,true
93248.472769,2.4655466079711914,2.003084182739258,-1.2344911098480225,3.695725202560425,1.484761118888855,4.773903846740723,false
93248.482728,1.970676064491272,1.9915798902511597,-1.5344700813293457,1.3544929027557373,-0.07415587455034256,5.426565170288086,false
93248.492687,1.9449608325958252,1.7341423034667969,-1.451028823852539,-0.23845787346363068,-1.9049171209335327,4.8183512687683105,false
93248.502645,2.6285951137542725,1.427821159362793,-1.2097417116165161,-0.8073168396949768,-3.4550817012786865,3.232792854309082,false
93248.512604,3.342080593109131,0.8775420188903809,-1.0138870477676392,-1.253749132156372,-4.459460258483887,2.105924367904663,false
93248.522563,3.136948585510254,0.48654311895370483,-0.952317476272583,-2.083174705505371,-4.745212554931641,1.185354471206665,false
93248.53252200001,2.4207799434661865,0.6739868521690369,-0.9656050205230713,-2.754913330078125,-5.265903949737549,0.8738862872123718,false
93248.54248,1.704358458518982,1.2414777278900146,-0.849004864692688,-2.453127384185791,-5.791860103607178,0.9800263047218323,false
93248.552439,1.1925632953643799,1.6201319694519043,-0.5221118927001953,-2.248408794403076,-5.980915069580078,0.9991407990455627,false
93248.56239800001,0.6706029176712036,1.567430019378662,-0.3597799241542816,-2.1284327507019043,-6.077341079711914,0.9173514246940613,false
93248.57235700001,0.06184345483779907,1.357600450515747,-0.10750052332878113,-1.3204177618026733,-5.859269142150879,0.45203492045402527,false
93248.582315,-0.3885807394981384,1.0495569705963135,0.18419598042964935,-0.7831145524978638,-5.528810024261475,-0.46518999338150024,false
93248.59227400001,-0.734392523765564,0.8062182068824768,0.4913579225540161,-0.8894777297973633,-5.155562400817871,-1.0458070039749146,false
93248.60223300001,-0.884858250617981,0.8050933480262756,0.8903414011001587,-1.3481395244598389,-4.707611560821533,-1.057193636894226,false
93248.612192,-0.7606161236763,0.7507761716842651,1.198786973953247,-2.1330738067626953,-4.47672700881958,-1.4892605543136597,false
93248.622151,-0.48947495222091675,0.3893721103668213,1.363592505455017,-3.1576497554779053,-3.953091621398926,-2.3851773738861084,false
93248.63210900001,-0.4059096574783325,-0.07852321863174438,1.4933634996414185,-3.409834146499634,-3.230109214782715,-3.2160634994506836,false
93248.642068,-0.5272704362869263,-0.4172612428665161,1.5319864749908447,-1.4902459383010864,-2.7149977684020996,-3.1986379623413086,false
93248.652027,-0.6573482155799866,-0.5762022137641907,1.613975167274475,0.4216943681240082,-2.006497859954834,-2.69730806350708,false
93248.661986,-0.663237452507019,-0.7143019437789917,1.5968374013900757,0.4958181083202362,-0.9560523629188538,-2.4985969066619873,false
93248.671944,-0.7016562819480896,-0.7719343304634094,1.4951449632644653,-0.5992716550827026,0.18473926186561584,-2.3751635551452637,false
93248.681903,-0.8531666398048401,-0.7035759091377258,1.4644498825073242,-2.102429151535034,1.36572265625,-1.9461115598678589,false
93248.691862,-0.9556613564491272,-0.7746357917785645,1.6483052968978882,-2.8252687454223633,1.8210341930389404,-1.7936731576919556,false
93248.70182100001,-0.9427436590194702,-1.0859959125518799,1.9650813341140747,-2.2269575595855713,1.5343635082244873,-1.0338703393936157,false
93248.711779,-0.8733204007148743,-1.55946683883667,2.0122807025909424,-1.7138363122940063,1.1901283264160156,-1.3434444665908813,false
93248.72173800001,-0.5230869054794312,-2.095705986022949,1.417514443397522,-0.35373273491859436,2.9504613876342773,-2.3936572074890137,false
93248.73169700001,-0.3624439835548401,-2.316469669342041,0.9135982990264893,0.7499703764915466,4.140255451202393,-2.7119457721710205,false
93248.74165600001,-0.698110818862915,-1.9124128818511963,0.6516056060791016,1.1943081617355347,3.6983964443206787,-0.9582512974739075,false
93248.751615,-0.6475765109062195,-1.3481929302215576,0.9450749158859253,-0.2485303431749344,3.9318628311157227,0.4085596799850464,false
93248.76157300001,-0.3319958448410034,-1.1076043844223022,1.1042158603668213,-0.592676043510437,4.722799301147461,0.9024189710617065,false
93248.771532,-0.23698681592941284,-1.0467913150787354,0.9063049554824829,-0.6805257797241211,5.388853073120117,0.6498486995697021,false
93248.781491,-0.19352948665618896,-1.333032488822937,0.4307854473590851,-0.9542396068572998,5.481874465942383,0.23704886436462402,false
93248.79145,-0.0815703272819519,-1.488541603088379,0.2899552285671234,-0.2046915888786316,5.471134185791016,0.499824583530426,false
93248.801408,0.15149086713790894,-1.2405405044555664,0.27775123715400696,1.4742578268051147,5.657654762268066,0.8627492189407349,false
93248.811367,0.4150947332382202,-0.8580657243728638,-0.028789937496185303,3.2628443241119385,5.099484920501709,1.2850689888000488,false
93248.821326,0.5227369070053101,-0.3922960162162781,-0.2983548939228058,4.418953895568848,3.8998987674713135,0.9456776976585388,false
93248.83128500001,0.7713184952735901,-0.025887668132781982,-0.4436391592025757,3.429072141647339,3.802769899368286,1.5416513681411743,false
93248.84124400001,1.3910175561904907,0.3724778890609741,-0.8180547952651978,3.118006944656372,2.257500171661377,0.8258761167526245,false
93248.851202,1.9293620586395264,0.7557849884033203,-0.9862061738967896,3.205261468887329,2.0600929260253906,2.382845163345337,false
93248.86116100001,2.279172420501709,1.0479652881622314,-1.4838488101959229,4.218483924865723,1.8300596475601196,3.2931900024414062,true
93248.87112000001,2.426257371902466,1.2731738090515137,-2.070246458053589,4.238328456878662,0.9218814373016357,4.499905109405518,false
93248.881079,2.0929415225982666,1.3695847988128662,-2.390469551086426,3.010218381881714,-1.1580393314361572,5.059874057769775,false
93248.89103700001,2.296483278274536,1.468035340309143,-2.1673388481140137,1.0920912027359009,-2.89723801612854,4.181894779205322,false
93248.90099600001,2.649306297302246,1.2725474834442139,-1.7811728715896606,-1.458935022354126,-3.5379796028137207,2.8809614181518555,false
93248.910955,2.588667392730713,0.7451525330543518,-1.582403540611267,-3.5362281799316406,-4.60198450088501,1.922379493713379,false
93248.920914,2.3331408500671387,0.45668351650238037,-1.370981216430664,-5.23559045791626,-5.114264488220215,0.9690133929252625,false
93248.93087200001,1.8839168548583984,0.48590558767318726,-1.095287799835205,-5.204142093658447,-5.154210090637207,0.41226932406425476,false
93248.940831,1.3873083591461182,0.8949235081672668,-0.9249618053436279,-3.5246241092681885,-4.661777019500732,-0.12123402953147888,false
93248.95079,0.871941864490509,1.3582258224487305,-0.6832746267318726,-1.862661361694336,-4.257122039794922,0.41367799043655396,false
93248.960749,0.09771937131881714,1.4539661407470703,-0.375465989112854,-1.6050788164138794,-4.8087687492370605,0.6096588969230652,false
93248.97070800001,-0.40217435359954834,1.7434561252593994,0.024763599038124084,-1.8931574821472168,-4.254997253417969,0.2604790925979614,false
93248.980666,-0.6604242324829102,1.810643196105957,0.28072166442871094,-1.9948558807373047,-3.258460283279419,0.11784417927265167,false
93248.990625,-0.6229380369186401,1.313012957572937,0.4627537727355957,-2.6351027488708496,-3.114887237548828,-0.45523691177368164,false
93249.00058400001,-0.44269680976867676,0.5680819153785706,0.7427891492843628,-3.4057934284210205,-3.8079373836517334,-1.5224359035491943,false
93249.01054300001,-0.5629591345787048,0.24634915590286255,1.1553592681884766,-3.973310708999634,-3.2660205364227295,-1.709389567375183,false
93249.020501,-0.6198939681053162,0.04079073667526245,1.5437871217727661,-4.50559663772583,-2.7073183059692383,-2.580299139022827,false
93249.03046000001,-0.4777134656906128,-0.3224550485610962,1.4030838012695312,-3.3469507694244385,-2.5330798625946045,-3.652916669845581,false
93249.04041900001,-0.660092294216156,-0.44775843620300293,1.4197757244110107,-0.9679238796234131,-2.05753493309021,-3.527635335922241,false
93249.050378,-0.7170597314834595,-0.5499127507209778,1.3998836278915405,0.09968163073062897,-1.3590493202209473,-3.2493209838867188,false
93249.06033600001,-0.5144768953323364,-0.6794694066047668,1.206527829170227,-0.5347328186035156,-0.30444374680519104,-2.888472080230713,false
93249.07029500001,-0.6042084693908691,-0.6588741540908813,1.2569067478179932,-1.0979583263397217,0.9651573896408081,-2.3893039226531982,false
93249.080254,-0.688705325126648,-0.6644781231880188,1.3164079189300537,-1.4781328439712524,2.082024335861206,-1.8194427490234375,false
93249.090213,-0.6951285600662231,-0.829261839389801,1.3461071252822876,-1.9803712368011475,2.9778099060058594,-1.2573708295822144,false
93249.100172,-0.7053420543670654,-1.1497373580932617,1.429840326309204,-1.8595311641693115,3.2221970558166504,-0.9411966800689697,false
93249.11013,-0.6540836095809937,-1.592907428741455,1.4562877416610718,-0.6503477096557617,2.934990644454956,-1.0571515560150146,false
93249.120089,-0.5088180303573608,-2.178318500518799,1.3748297691345215,-0.16042891144752502,3.135913848876953,-1.6576690673828125,false
93249.130048,-0.24908602237701416,-2.626244068145752,1.1624860763549805,0.3748878240585327,3.8191449642181396,-1.6324952840805054,false
93249.14000700001,-0.12344014644622803,-2.0694479942321777,0.9491281509399414,0.24543637037277222,3.9804916381835938,-0.3193158805370331,false
93249.149965,-0.19293510913848877,-1.3166821002960205,0.8563662767410278,-0.1654345989227295,4.520599842071533,0.7933268547058105,false
93249.15992366667,-0.2750597596168518,-1.246876835823059,0.9121705293655396,-0.4962599277496338,5.316318988800049,1.2537239789962769,false
93249.16988266667,-0.27886295318603516,-1.4578866958618164,0.6401203870773315,-0.9805163741111755,5.493345737457275,1.173213243484497,false
93249.17984166667,-0.2045542597770691,-1.6334044933319092,0.2770238220691681,-0.6835427284240723,5.41869592666626,1.0504140853881836,false
93249.18979966667,0.02017688751220703,-1.5169847011566162,0.20697492361068726,0.161434143781662,5.447627067565918,0.8081545829772949,false
93249.19975866667,0.2891903817653656,-1.1746273040771484,-0.08983731269836426,1.5518343448638916,5.780036449432373,1.1550369262695312,false
93249.20971766667,0.29151391983032227,-0.711685061454773,-0.3386790156364441,2.229597806930542,4.886903285980225,0.48340192437171936,false
93249.21967666667,0.281514048576355,-0.45479816198349,-0.532295286655426,3.207937240600586,4.117977619171143,0.6480547785758972,false
93249.22963566668,0.39166873693466187,-0.1873161792755127,-0.5439895987510681,3.8807859420776367,4.063654899597168,1.304862141609192,false
93249.23959366667,1.1897263526916504,0.2571415901184082,-0.8552018404006958,2.5783865451812744,2.6714322566986084,0.4686477482318878,false
93249.24955266668,1.9194775819778442,0.6697562336921692,-1.0215644836425781,2.369503974914551,2.6757967472076416,1.9439581632614136,false
93249.25951166668,1.8537253141403198,1.2083252668380737,-1.1733651161193848,2.8409881591796875,2.8708648681640625,3.9174041748046875,true
93249.26947066667,1.974837064743042,1.3768258094787598,-1.70304274559021,2.5724992752075195,2.8241820335388184,5.533060550689697,false
93249.27942866668,1.9891207218170166,1.3545714616775513,-2.018709897994995,3.3656797409057617,1.1626805067062378,5.677765846252441,false
93249.28938766668,1.9934675693511963,1.376688003540039,-1.8475087881088257,3.552445411682129,-1.6671723127365112,4.478442668914795,false
93249.29934666667,2.443662643432617,1.276167869567871,-1.4445815086364746,2.246795177459717,-3.2656161785125732,3.279313564300537,false
93249.30930566667,3.070993661880493,1.2686004638671875,-0.8977258205413818,-0.1479756385087967,-4.0789971351623535,2.2114624977111816,false
93249.31926466667,2.8665719032287598,1.0038750171661377,-0.8424707651138306,-1.9875788688659668,-4.4238080978393555,1.5750255584716797,false
93249.32922266667,1.9494349956512451,0.8205500245094299,-0.9947333335876465,-3.0562760829925537,-4.4980597496032715,0.9876635074615479,false
93249.33918166667,1.3614314794540405,0.9780610203742981,-1.0108965635299683,-3.493525981903076,-4.797616958618164,0.9702821373939514,false
93249.34914066667,0.8617998361587524,1.2558386325836182,-0.9092501401901245,-3.174421787261963,-5.216413974761963,1.2449007034301758,false
93249.35909966668,0.4924566149711609,1.3842787742614746,-0.665790319442749,-2.8378560543060303,-4.7753071784973145,1.7143394947052002,false
93249.36905766667,0.08033502101898193,1.248995304107666,-0.4408074617385864,-2.6482584476470947,-4.43161678314209,1.5112903118133545,false
93249.37901666667,-0.34560632705688477,1.127695083618164,-0.11921478807926178,-2.380396842956543,-4.306005477905273,0.37121978402137756,false
93249.38897566668,-0.6388059258460999,1.1229368448257446,0.22377823293209076,-2.2324798107147217,-3.851288080215454,-0.5828449130058289,false
93249.39893466668,-0.7190580368041992,1.083335041999817,0.47928452491760254,-2.537646532058716,-3.8343629837036133,-0.9867274165153503,false
93249.40889266667,-0.5557845830917358,0.9064238667488098,0.760076642036438,-3.1120972633361816,-3.905118703842163,-1.1820734739303589,false
93249.41885166668,-0.3751871585845947,0.603948175907135,1.1305410861968994,-3.368952989578247,-3.8331336975097656,-1.5498384237289429,false
93249.42881066668,-0.37421709299087524,0.18917667865753174,1.3593567609786987,-3.5780327320098877,-3.534921169281006,-2.207073926925659,false
93249.43876966667,-0.5490801930427551,-0.21626192331314087,1.3365856409072876,-3.8255765438079834,-2.8715450763702393,-2.628584146499634,false
93249.44872866667,-0.7567911148071289,-0.4134427309036255,1.3005458116531372,-2.9252235889434814,-2.2462892532348633,-2.603630781173706,false
93249.45868666668,-0.830549955368042,-0.4851419925689697,1.3263623714447021,-1.5686546564102173,-1.6792956590652466,-2.422459125518799,false
93249.46864566667,-0.780951738357544,-0.6558243632316589,1.285443902015686,-0.9192057847976685,-1.0025933980941772,-2.4756968021392822,false
93249.47860466667,-0.7042022943496704,-0.8604956865310669,1.2485071420669556,-1.1087514162063599,-0.3837849795818329,-2.750122547149658,false
93249.48856366667,-0.6518413424491882,-1.0033395290374756,1.2488831281661987,-1.0936940908432007,0.18070411682128906,-2.669123888015747,false
93249.49852166667,-0.6444007158279419,-1.1508857011795044,1.388809323310852,-0.8448576331138611,0.8875600695610046,-2.4254355430603027,false
93249.50848066667,-0.6265649199485779,-1.3848978281021118,1.4025001525878906,-0.7600790858268738,1.29922354221344,-1.7008737325668335,false
93249.51843966667,-0.6314263343811035,-1.6900241374969482,1.3047313690185547,-0.17356501519680023,2.2947771549224854,-1.1294595003128052,false
93249.52839866668,-0.5073208808898926,-2.066190242767334,1.2365556955337524,-0.3709515929222107,3.611335277557373,-0.8606310486793518,false
93249.53835666667,-0.48548901081085205,-2.271390438079834,0.899315357208252,-0.9527556300163269,4.545464992523193,-0.47032082080841064,false
93249.54831566667,-0.5719637870788574,-2.0871636867523193,0.8541375398635864,-1.1150480508804321,4.852302074432373,0.11554639041423798,false
93249.55827466668,-0.49107658863067627,-1.743515968322754,0.8802474737167358,-0.8515064716339111,4.536196231842041,0.452654629945755,false
93249.56823366668,-0.28698909282684326,-1.4852931499481201,0.866858720779419,-0.3672308921813965,4.485494136810303,0.23155581951141357,false
93249.57819266667,-0.05284678936004639,-1.2848279476165771,0.6912966966629028,0.5597414374351501,4.8638811111450195,0.21256375312805176,false
93249.58815066668,0.058197736740112305,-1.0918629169464111,0.3709830939769745,0.874575138092041,5.335380554199219,0.11997979134321213,false
93249.59810966667,0.09775322675704956,-0.9573593735694885,0.08807915449142456,1.737194299697876,6.277055263519287,1.1621836423873901,false
93249.60806866667,0.08083832263946533,-0.805124819278717,-0.03557053208351135,1.6677354574203491,7.146925449371338,2.124804973602295,false
93249.61802766667,0.23260149359703064,-0.6858267188072205,-0.1971415877342224,1.3109259605407715,6.278017520904541,2.4714136123657227,false
93249.62798566667,0.4959090054035187,-0.4442201852798462,-0.17490547895431519,1.8337464332580566,4.967209339141846,2.441756248474121,false
93249.63794466667,1.0534586906433105,-0.22779697179794312,0.023050129413604736,3.4355239868164062,3.5867223739624023,1.8744136095046997,false
93249.64790366667,2.098860740661621,0.09724575281143188,-0.49725115299224854,4.839293956756592,2.6181514263153076,1.3909238576889038,false
93249.65786266667,2.165806770324707,0.44817280769348145,-1.126420021057129,5.347195625305176,1.623264193534851,1.7873700857162476,false
93249.66782166668,2.07938289642334,0.6649987697601318,-1.6801998615264893,4.6895623207092285,0.7445911169052124,2.4558522701263428,false
93249.67777966667,2.1889219284057617,0.9062507152557373,-1.7666698694229126,2.9466159343719482,-0.14646181464195251,3.6377859115600586,true
93249.68773866667,2.1873269081115723,1.3218146562576294,-1.845432162284851,0.931632399559021,-0.5139876008033752,5.236321926116943,false
93249.69769766668,2.4024088382720947,1.6767489910125732,-1.8272755146026611,0.3708774447441101,-1.2978153228759766,4.993992328643799,false
93249.70765666667,2.7730774879455566,1.8111884593963623,-1.7553105354309082,-0.33152487874031067,-2.3501126766204834,3.326913356781006,false
93249.71761466668,2.4978668689727783,1.5183327198028564,-1.6605178117752075,-1.8443257808685303,-3.6502981185913086,1.9313114881515503,false
93249.72757366668,1.9152357578277588,1.0440219640731812,-1.4430700540542603,-3.032719373703003,-5.042450904846191,1.2059155702590942,false
93249.73753266667,1.7931370735168457,1.0163371562957764,-1.142220139503479,-2.47218918800354,-5.417771339416504,0.4502872824668884,false
93249.74749166667,1.3737802505493164,1.3449794054031372,-0.9309899806976318,-2.023500919342041,-5.264815330505371,0.5635229349136353,false
93249.75744966668,0.5231368541717529,1.4529706239700317,-0.8812741041183472,-1.9038995504379272,-4.75044059753418,1.875289797782898,false
93249.76740866667,0.0207175612449646,1.5887012481689453,-0.5725000500679016,-2.8135201930999756,-4.253757476806641,2.2177023887634277,false
93249.77736766667,-0.30080872774124146,1.6614257097244263,-0.4130427837371826,-2.650728702545166,-3.7637128829956055,1.5331066846847534,false
93249.78732666667,-0.7058719992637634,1.5090579986572266,-0.10792228579521179,-1.3622881174087524,-3.3159255981445312,0.5672213435173035,false
93249.79728566667,-0.7212389707565308,0.9747886657714844,0.2313457727432251,-1.563098669052124,-3.841170310974121,-0.7800614833831787,false
93249.80724366667,-0.5139315128326416,0.44356828927993774,0.44135212898254395,-2.001650333404541,-4.437118053436279,-1.260454773902893,false
93249.81720266667,-0.4007441997528076,0.27917784452438354,1.088080883026123,-2.4897685050964355,-3.9937524795532227,-1.3822605609893799,false
93249.82716166668,-0.2174658179283142,-0.016998887062072754,1.4982125759124756,-2.880850076675415,-3.4627349376678467,-2.04885196685791,false
93249.83712066668,-0.3597453832626343,-0.3175976276397705,1.4242238998413086,-3.184098720550537,-2.693040609359741,-2.4872920513153076,false
93249.84707866667,-0.7346574664115906,-0.3841347098350525,1.3725932836532593,-2.7893154621124268,-1.8756605386734009,-2.2734763622283936,false
93249.85703766668,-0.7656803727149963,-0.4859800934791565,1.3563058376312256,-2.3328793048858643,-1.3713912963867188,-2.4768612384796143,false
93249.86699666668,-0.6654051542282104,-0.6031335592269897,1.352914571762085,-1.8053231239318848,-0.8066413998603821,-2.7399768829345703,false
93249.87695566667,-0.7325837016105652,-0.7270262241363525,1.4796082973480225,-1.1779543161392212,-0.10760211199522018,-2.892822265625,false
93249.88691366668,-0.78647780418396,-0.9097525477409363,1.5520312786102295,-0.5099658370018005,0.46004796028137207,-2.6908018589019775,false
93249.89687266668,-0.7607002854347229,-1.1575489044189453,1.5273592472076416,-0.39068102836608887,1.058716893196106,-2.5428366661071777,false
93249.90683166667,-0.714993417263031,-1.402040719985962,1.5475306510925293,-1.3742599487304688,1.8758352994918823,-2.230548858642578,false
93249.91679066667,-0.6842296719551086,-1.5639524459838867,1.4096269607543945,-1.8830381631851196,2.286045789718628,-1.6844260692596436,false
93249.92674966667,-0.5810489058494568,-1.5929756164550781,1.2935243844985962,-1.281276822090149,3.3443145751953125,-1.2452799081802368,false
93249.93670766667,-0.4407309293746948,-1.4580938816070557,1.0735119581222534,-0.7513147592544556,4.300781726837158,-0.5349312424659729,false
93249.94666666667,-0.49903541803359985,-1.2480440139770508,0.6517060995101929,-0.3627680540084839,4.7093186378479,0.23751293122768402,false
93249.95662566667,-0.5285268425941467,-1.019174575805664,0.7099852561950684,-0.31681546568870544,5.041687488555908,0.5072461366653442,false
93249.96658466668,-0.4174378514289856,-0.9674245119094849,0.7505865097045898,0.2107970267534256,5.077215194702148,0.4132871925830841,false
93249.97654266667,-0.27510547637939453,-1.1187896728515625,0.5570735931396484,0.6398307085037231,5.052605152130127,-0.28836628794670105,false
93249.98650166667,-0.07432472705841064,-1.2954262495040894,0.4051295816898346,0.7137688994407654,5.231167793273926,-0.24169224500656128,false
93249.99646066668,0.07713013887405396,-1.2433645725250244,0.297672301530838,0.7821236848831177,5.099114894866943,-0.027500063180923462,false
93250.00641966668,0.2251916229724884,-0.9918602705001831,0.2216969132423401,1.0441515445709229,5.446295261383057,0.8529418110847473,false
93250.01637766667,0.32690510153770447,-0.7538913488388062,0.04555106163024902,1.3584293127059937,5.631256580352783,1.4378907680511475,false
93250.02633666668,0.5051701068878174,-0.5611150860786438,-0.23553800582885742,2.320286750793457,5.338374137878418,1.9119243621826172,false
93250.03629566668,0.7689684629440308,-0.29906517267227173,-0.39317983388900757,3.228944778442383,4.095412731170654,1.7008459568023682,false
93250.04625466667,1.3188968896865845,-0.034687161445617676,-0.6062116026878357,3.4138805866241455,2.7218587398529053,1.2636319398880005,false
93250.05621366667,1.7904319763183594,0.3322926163673401,-1.0215704441070557,3.8716702461242676,2.7450361251831055,2.0129103660583496,false
93250.06617166667,1.787869930267334,0.6223272085189819,-1.6068115234375,5.353661060333252,3.5673444271087646,4.076641082763672,false
93250.07613066667,1.7946751117706299,0.865917444229126,-2.067049741744995,4.776034832000732,1.2466609477996826,5.279172897338867,false
93250.08608966667,1.9940674304962158,1.1410200595855713,-1.9763950109481812,2.5615272521972656,-1.6578974723815918,5.265139102935791,true
93250.09604866667,2.3501367568969727,1.291844367980957,-1.314691424369812,0.6106843948364258,-2.7732415199279785,4.006289482116699,false
93250.10600666667,2.920480251312256,0.9632933139801025,-0.9897359609603882,-0.9192056059837341,-3.0358359813690186,2.4612913131713867,false
93250.11596566667,2.8783445358276367,0.4710502028465271,-1.3135250806808472,-3.0259530544281006,-3.018040180206299,2.070641279220581,false
93250.12592466667,2.2778851985931396,0.47820812463760376,-1.5449713468551636,-3.6905176639556885,-3.258877992630005,1.7766404151916504,false
93250.13588366668,1.8648314476013184,0.9072631001472473,-1.3855867385864258,-3.0617432594299316,-3.598816156387329,1.4986591339111328,false
93250.14584266668,1.4622528553009033,1.2742455005645752,-1.2375001907348633,-2.2041876316070557,-4.392643928527832,1.6209214925765991,false
93250.15580066667,1.086759090423584,1.568717122077942,-0.9590778350830078,-1.491244912147522,-5.035820960998535,1.7204797267913818,false
93250.16575991668,0.7931660413742065,1.6822679042816162,-0.5407367944717407,-0.7331700325012207,-5.004823207855225,1.6071356534957886,false
93250.17571891667,0.24645286798477173,1.6291764974594116,-0.23710179328918457,-0.7200907468795776,-4.659778594970703,1.2118101119995117,false
93250.18567791667,-0.27445852756500244,1.3719866275787354,-0.061644911766052246,-1.6482291221618652,-4.248600006103516,0.5449010729789734,false
93250.19563591667,-0.613509476184845,1.0840556621551514,0.26002776622772217,-2.7625811100006104,-3.7228410243988037,-0.08625686913728714,false
93250.20559491667,-0.7666571736335754,0.9092473983764648,0.6548199653625488,-3.4453322887420654,-3.681981086730957,-0.5894253849983215,false
93250.21555391667,-0.7888122200965881,0.6944184899330139,0.9690203666687012,-3.444566249847412,-3.752821683883667,-1.271637201309204,false
93250.22551291667,-0.6996310353279114,0.3728231191635132,1.1912356615066528,-2.554616689682007,-3.651655435562134,-2.0779879093170166,false
93250.23547091667,-0.56008380651474,0.033757567405700684,1.2855628728866577,-0.9377889633178711,-3.5263333320617676,-2.7452850341796875,false
93250.24542991667,-0.46084147691726685,-0.12572234869003296,1.3933755159378052,-0.3115668296813965,-2.8392903804779053,-2.7223198413848877,false
93250.25538891667,-0.41185617446899414,-0.12907099723815918,1.4299116134643555,-0.31333276629447937,-2.0064330101013184,-2.192561388015747,false
93250.26534791668,-0.5237843990325928,-0.14126741886138916,1.4620264768600464,-0.9176333546638489,-1.354598045349121,-2.507465362548828,false
93250.27530691668,-0.6891570091247559,-0.32661449909210205,1.4473214149475098,-1.4033222198486328,-0.34740978479385376,-2.4419145584106445,false
93250.28526491667,-0.849297285079956,-0.5392887592315674,1.5635788440704346,-1.959125280380249,0.5178481340408325,-1.8672423362731934,false
93250.29522391668,-0.8604142665863037,-0.771123468875885,1.669585943222046,-2.3838672637939453,0.8770139813423157,-1.3480165004730225,false
93250.30518291667,-0.7270143032073975,-1.1879545450210571,1.5764907598495483,-1.9237103462219238,0.9910469651222229,-1.3522683382034302,false
93250.31514191667,-0.6612809300422668,-1.5879924297332764,1.4377801418304443,-1.0324413776397705,1.598408818244934,-1.826508641242981,false
93250.32509991668,-0.5680704712867737,-1.9570808410644531,1.1349841356277466,-0.4266151189804077,2.3182969093322754,-2.2764148712158203,false
93250.33505891667,-0.5450050234794617,-2.013458251953125,1.0336580276489258,-0.11804130673408508,2.880946636199951,-1.978475570678711,false
93250.34501791667,-0.5642814636230469,-1.6151981353759766,0.998992919921875,-0.3251892924308777,3.2592077255249023,-0.9771955609321594,false
93250.35497691667,-0.5035579800605774,-1.286238670349121,0.9861859083175659,-0.7287042737007141,3.9545719623565674,-0.18834009766578674,false
93250.36493491667,-0.4230855703353882,-1.184910774230957,0.9168754816055298,-0.7049295902252197,4.555456638336182,0.19637535512447357,false
93250.37489391667,-0.3762768507003784,-1.220414161682129,0.7322217226028442,-0.7746740579605103,4.966745853424072,0.21712350845336914,false
93250.38485291667,-0.2738785743713379,-1.3533132076263428,0.5149917602539062,-0.6105168461799622,5.3535356521606445,0.24382974207401276,false
93250.39481191667,-0.11147427558898926,-1.3252718448638916,0.29777956008911133,0.18003372848033905,5.839885711669922,0.2745759189128876,false
93250.40477091668,-0.0021866559982299805,-1.0950689315795898,0.1056680679321289,1.474084734916687,6.2877020835876465,0.5302031636238098,false
93250.41472891667,0.04206186532974243,-0.8336392045021057,-0.05689346790313721,2.5976006984710693,5.827144622802734,0.7065185308456421,false
93250.42468791667,0.1244497299194336,-0.5971160531044006,-0.06781148910522461,2.997154474258423,5.1869072914123535,1.413924217224121,false
93250.43464691668,0.49860554933547974,-0.3077930808067322,0.020142823457717896,3.1796016693115234,4.6082258224487305,1.2157821655273438,false
93250.44460591667,1.2142246961593628,0.030241310596466064,-0.12702548503875732,3.394826889038086,4.252567291259766,1.0971122980117798,false
93250.45456391668,1.5023462772369385,0.2451612949371338,-0.4402449429035187,3.8076541423797607,3.21496844291687,1.013227939605713,false
93250.46452291668,1.6469053030014038,0.3850506544113159,-0.8995038270950317,3.647585868835449,2.6969289779663086,1.6095967292785645,false
93250.47448191667,1.8060420751571655,0.5462577939033508,-1.425702691078186,4.109457969665527,2.5658092498779297,2.6050479412078857,false
93250.48444091667,1.8815395832061768,0.74599689245224,-1.8498684167861938,4.108674049377441,1.7651402950286865,3.6225650310516357,false
93250.49439991667,1.892435073852539,0.9065695405006409,-2.0756139755249023,2.5891127586364746,-0.17354078590869904,4.336935997009277,true
93250.50435791667,1.9980809688568115,1.0979413986206055,-1.91090989112854,0.7282886505126953,-1.7339979410171509,4.039514541625977,false
93250.51431691667,2.4634058475494385,1.1663005352020264,-1.6153855323791504,-0.4426276683807373,-2.510314702987671,2.796825408935547,false
93250.52427591667,2.850579261779785,0.9121623039245605,-1.574924349784851,-1.720390796661377,-3.0260202884674072,2.348092555999756,false
93250.53423491667,2.5699589252471924,0.7065770030021667,-1.6649293899536133,-2.8090639114379883,-3.513007879257202,2.2030301094055176,false
93250.54419291667,2.0352559089660645,0.905582070350647,-1.5313446521759033,-3.043060302734375,-3.8619911670684814,2.091270685195923,false
93250.55415191667,1.4671080112457275,1.224534034729004,-1.3532954454421997,-2.772394895553589,-4.221202373504639,1.7676814794540405,false
93250.56411091668,0.9398561716079712,1.3409829139709473,-1.1527559757232666,-2.4768669605255127,-4.373429775238037,1.4185051918029785,false
93250.57406991668,0.4886319041252136,1.3482956886291504,-0.852881908416748,-2.2502167224884033,-4.706693172454834,1.1723384857177734,false
93250.58402791667,0.012766480445861816,1.3888874053955078,-0.4360088109970093,-1.9497934579849243,-4.890110969543457,0.5332284569740295,false
93250.59398691668,-0.37813180685043335,1.249544620513916,-0.006210446357727051,-1.823838710784912,-4.843788146972656,-0.22060243785381317,false
93250.60394591668,-0.6429434418678284,1.122748613357544,0.3806436061859131,-2.2968833446502686,-4.267327785491943,-0.5417173504829407,false
93250.61390491667,-0.6814101338386536,0.9819710850715637,0.6811959743499756,-2.91416597366333,-3.7095367908477783,-0.4151228964328766,false
93250.62386391667,-0.57337886095047,0.7012974619865417,0.9275455474853516,-3.2764899730682373,-3.625840425491333,-0.7046721577644348,false
93250.63382191668,-0.4739333987236023,0.23887038230895996,1.129262089729309,-2.512681007385254,-3.703714370727539,-1.5792782306671143,false
93250.64378091667,-0.5289143919944763,-0.22009021043777466,1.3691034317016602,-1.0807099342346191,-3.3442440032958984,-2.2052419185638428,false
93250.65373991667,-0.5883970856666565,-0.5431564450263977,1.5028148889541626,-0.5652341246604919,-2.557333469390869,-2.254974603652954,false
93250.66369891667,-0.6019256711006165,-0.7070633172988892,1.4838006496429443,-0.9728268384933472,-1.8246394395828247,-2.3696885108947754,false
93250.67365691667,-0.6869403123855591,-0.7524898648262024,1.5714350938796997,-0.8783315420150757,-1.1258054971694946,-2.0642173290252686,false
93250.68361591667,-0.7979698181152344,-0.7732617259025574,1.7688617706298828,-1.2132058143615723,-0.4659128487110138,-1.7454204559326172,false
93250.69357491667,-0.8056753277778625,-0.8691007494926453,1.7601546049118042,-1.8116157054901123,0.34412673115730286,-1.5767298936843872,false
93250.70353391668,-0.7984217405319214,-1.0490612983703613,1.6849744319915771,-1.8607923984527588,1.002842664718628,-1.6083940267562866,false
93250.71349191667,-0.8351848721504211,-1.234237551689148,1.641369104385376,-1.2578049898147583,1.366635799407959,-1.2470762729644775,false
93250.72345091667,-0.8353841304779053,-1.4930510520935059,1.4885084629058838,-0.5528765320777893,1.4388841390609741,-1.150384783744812,false
93250.73340991668,-0.6591118574142456,-1.7929415702819824,1.3114430904388428,-0.4138696491718292,2.5025553703308105,-1.5061900615692139,false
93250.74336891668,-0.4642956852912903,-1.8877818584442139,1.0179811716079712,-0.30418434739112854,3.6678988933563232,-1.5504000186920166,false
93250.75332791667,-0.550428569316864,-1.6213767528533936,0.8322498798370361,-0.24702732264995575,4.256328582763672,-0.7244085669517517,false
93250.76328591668,-0.576664388179779,-1.2977558374404907,0.7733631134033203,-0.7603185772895813,4.192284107208252,0.19119875133037567,false
93250.77324491667,-0.4589187502861023,-1.1395659446716309,0.8084430694580078,-0.7843232750892639,4.6963372230529785,0.5315824747085571,false
93250.78320391667,-0.2965129613876343,-1.0524688959121704,0.7531033754348755,-0.41183385252952576,5.186781406402588,0.3686525523662567,false
93250.79316291667,-0.183274507522583,-0.992501437664032,0.36286887526512146,0.17820146679878235,4.952027797698975,0.3426097631454468,false
93250.80312091667,-0.13921481370925903,-0.8889246582984924,0.28469717502593994,0.9969415664672852,4.93168306350708,0.9280349016189575,false
93250.81307991667,0.10996031761169434,-0.7579760551452637,0.25736287236213684,1.6958922147750854,4.742837905883789,0.7472632527351379,false
93250.82303891667,0.4251245856285095,-0.5649706125259399,0.05078127980232239,2.248728036880493,4.3395819664001465,0.8900306224822998,false
93250.83299791667,0.6415331959724426,-0.3068176507949829,-0.026890993118286133,2.9025001525878906,3.759230375289917,0.834335446357727,false
93250.84295691668,1.200463056564331,-0.06468331813812256,-0.23928281664848328,3.2215754985809326,2.8620963096618652,0.2143825888633728,false
93250.85291491667,1.5626988410949707,0.21049779653549194,-0.648918628692627,3.300203323364258,1.1412955522537231,-0.7756414413452148,false
93250.86287391667,1.5499675273895264,0.46616554260253906,-1.171208381652832,3.3720474243164062,1.7906579971313477,0.8091607093811035,false
93250.87283291668,1.6441985368728638,0.7839683294296265,-1.7862837314605713,3.8057947158813477,2.87589955329895,4.1059889793396,false
93250.88279191667,1.9839096069335938,1.2241427898406982,-2.240177631378174,3.4893405437469482,1.1328665018081665,5.128793716430664,true
93250.89274991667,2.0800275802612305,1.4424374103546143,-2.2300522327423096,1.808418869972229,-0.8360186219215393,4.700125694274902,false
93250.90270891668,2.121924638748169,1.247076153755188,-1.8627740144729614,-0.20267224311828613,-2.228982448577881,3.2265734672546387,false
93250.91266791667,2.8191614151000977,0.9503185153007507,-1.578332543373108,-1.6215442419052124,-3.0416221618652344,1.72745943069458,false
93250.92262691667,2.9835267066955566,0.6450918316841125,-1.4242445230484009,-3.434694766998291,-3.2929887771606445,1.1803547143936157,false
93250.93258491668,2.3495171070098877,0.559167742729187,-1.4485375881195068,-4.281854152679443,-3.893681764602661,1.0401198863983154,false
93250.94254391667,1.7494251728057861,1.1080189943313599,-1.1600921154022217,-3.9295263290405273,-4.389370918273926,0.824629008769989,false
93250.95250291667,1.1419239044189453,1.4865660667419434,-0.8631694316864014,-2.8354861736297607,-4.094812393188477,1.0712820291519165,false
93250.96246191667,0.5010345578193665,1.5176911354064941,-0.701263427734375,-1.1933010816574097,-3.5998826026916504,1.683270812034607,false
93250.97242091667,-0.015194535255432129,1.6916049718856812,-0.6138025522232056,-0.7655657529830933,-4.333207130432129,0.8783045411109924,false
93250.98237891667,-0.5513290762901306,1.6933214664459229,-0.3759661912918091,-1.1164441108703613,-4.235616207122803,0.010059045627713203,false
93250.99233791667,-0.8356729745864868,1.5367320775985718,0.1699749231338501,-1.3502871990203857,-3.4269702434539795,-0.07585719227790833,false
93251.00229691667,-0.7175596952438354,1.1936705112457275,0.5665334463119507,-2.1298093795776367,-3.2377707958221436,-0.148142009973526,false
93251.01225591668,-0.5377578735351562,0.6982895731925964,0.8528927564620972,-2.651465654373169,-3.7470269203186035,-0.5266954302787781,false
93251.02221391667,-0.5224360823631287,0.3325469493865967,1.2965978384017944,-1.9477955102920532,-3.858309507369995,-1.317384958267212,false
93251.03217291668,-0.4700489044189453,-0.08034437894821167,1.5743101835250854,-0.9974545240402222,-3.3827054500579834,-2.0460715293884277,false
93251.04213191668,-0.470420777797699,-0.4384610056877136,1.5114638805389404,-0.8778696656227112,-2.340721845626831,-2.215474843978882,false
93251.05209091667,-0.5393992066383362,-0.538910984992981,1.371594786643982,-0.578629195690155,-1.5591912269592285,-2.2208614349365234,false
93251.06204891668,-0.5681310892105103,-0.497170627117157,1.3996690511703491,-0.33495569229125977,-1.0625371932983398,-2.225872755050659,false
93251.07200791668,-0.6422799825668335,-0.471499502658844,1.5618194341659546,-0.6851877570152283,-0.4670170843601227,-2.2107601165771484,false
93251.08196691667,-0.6964771151542664,-0.586236834526062,1.6978572607040405,-1.5717655420303345,0.32970091700553894,-2.1681692600250244,false
93251.09192591667,-0.7048248052597046,-0.7469208836555481,1.7220121622085571,-1.872830867767334,1.018053412437439,-1.7167158126831055,false
93251.10188491667,-0.7516914010047913,-0.9425781965255737,1.7934314012527466,-1.3705332279205322,0.9712815284729004,-1.0815045833587646,false
93251.11184291667,-0.6822472810745239,-1.3451869487762451,1.8099472522735596,-0.9896705746650696,0.8921124339103699,-1.381165623664856,false
93251.12180191667,-0.46036607027053833,-1.868347406387329,1.5004370212554932,-1.663928747177124,1.5795894861221313,-2.0829432010650635,false
93251.13176091667,-0.338650107383728,-2.1709275245666504,1.1871066093444824,-1.8153408765792847,2.4331979751586914,-2.2862331867218018,false
93251.14171991668,-0.361868679523468,-1.871995449066162,0.9183694124221802,-1.18675696849823,3.0616676807403564,-1.7967175245285034,false
93251.15167791667,-0.42135560512542725,-1.3668537139892578,0.6194115877151489,-0.5805829167366028,3.425337314605713,-0.8719497919082642,false
93251.16163691667,-0.48865407705307007,-1.136307716369629,0.49435827136039734,-0.22749057412147522,4.103885173797607,-0.31434428691864014,false
93251.171596125,-0.43417614698410034,-0.9861224293708801,0.4706878364086151,0.19473709166049957,4.844552993774414,-0.10101441293954849,false
93251.181555125,-0.3597947359085083,-0.9078861474990845,0.3211815059185028,0.5257614850997925,4.992735862731934,-0.045964308083057404,false
93251.191514125,-0.23662221431732178,-0.9498822689056396,0.1869325339794159,0.8376615643501282,4.880209445953369,0.007884540595114231,false
93251.201472125,-0.013409584760665894,-1.0012807846069336,0.13608065247535706,1.094036340713501,5.1273274421691895,0.24070627987384796,false
93251.211431125,0.19872558116912842,-0.9301407337188721,0.07418328523635864,1.5017119646072388,5.180785655975342,0.6329529285430908,false
93251.221390125,0.3053356111049652,-0.7423031330108643,-0.02243056893348694,2.2723703384399414,4.986483097076416,1.3600256443023682,false
93251.23134912501,0.44058018922805786,-0.5614486932754517,-0.21202969551086426,3.3930537700653076,4.396466255187988,2.0635459423065186,false
93251.241307125,0.7906880378723145,-0.3477565050125122,-0.5255932807922363,3.825021743774414,3.4625277519226074,2.546522617340088,false
93251.25126612501,1.2051461935043335,-0.0320894718170166,-0.8057143688201904,3.2436599731445312,2.330422878265381,2.687650680541992,false
93251.26122512501,1.587376594543457,0.2645164728164673,-1.1072123050689697,2.888437032699585,1.7607969045639038,3.4105610847473145,false
93251.271184125,1.8083653450012207,0.477283775806427,-1.513586163520813,3.550021171569824,1.9158935546875,4.615350723266602,false
93251.28114212501,2.0003466606140137,0.5999139547348022,-1.9947071075439453,3.9299426078796387,1.5428431034088135,5.308893203735352,false
93251.29110112501,2.064926862716675,0.6538386344909668,-2.284609317779541,2.32238507270813,-0.22243395447731018,4.808597564697266,false
93251.301060125,2.0264732837677,0.6640934348106384,-2.2222325801849365,0.4451059401035309,-2.159613609313965,3.4758405685424805,false
93251.311019125,2.2713804244995117,0.5858444571495056,-1.8132431507110596,-0.9901828765869141,-3.9612395763397217,1.9904134273529053,false
93251.320978125,2.9244232177734375,0.3794376254081726,-1.541793942451477,-2.269160032272339,-4.739465713500977,1.3333522081375122,false
93251.330936125,2.9715218544006348,0.37881970405578613,-1.478416919708252,-3.3537697792053223,-4.838954925537109,1.301782488822937,false
93251.340895125,2.126842737197876,0.8433864116668701,-1.4141287803649902,-3.364292860031128,-4.466067790985107,1.300788164138794,false
93251.350854125,1.330940842628479,1.3267395496368408,-1.3440076112747192,-3.392504930496216,-2.8009531497955322,1.6904791593551636,true
93251.36081312501,0.8031893372535706,1.4963788986206055,-1.2009040117263794,-4.3156561851501465,-3.5494344234466553,1.9271807670593262,false
93251.370771125,0.17319625616073608,1.9141948223114014,-1.105508804321289,-3.6263136863708496,-4.0440545082092285,1.5961689949035645,false
93251.380730125,-0.2706313729286194,1.9942868947982788,-0.4644209146499634,-2.33563494682312,-4.664830684661865,0.5877658128738403,false
93251.39068912501,-0.24787044525146484,1.640794038772583,-0.02949655055999756,-1.8277333974838257,-4.789724349975586,-0.29663169384002686,false
93251.40064812501,-0.20246565341949463,1.213733434677124,0.34261953830718994,-1.8745685815811157,-4.428871154785156,-0.647275447845459,false
93251.410606125,-0.26172542572021484,0.9554660320281982,0.7021341323852539,-2.1839439868927,-3.9277963638305664,-0.8771946430206299,false
93251.42056512501,-0.37621062994003296,0.7313172221183777,1.0095921754837036,-2.8117661476135254,-3.469355821609497,-1.2388503551483154,false
93251.43052412501,-0.469229519367218,0.4070216417312622,1.2522335052490234,-3.4456117153167725,-3.0156216621398926,-1.5837244987487793,false
93251.440483125,-0.4998645782470703,0.05028104782104492,1.4147498607635498,-3.3784239292144775,-2.4355859756469727,-1.8764500617980957,false
93251.450442125,-0.46511608362197876,-0.27080994844436646,1.46524977684021,-1.6493369340896606,-2.0871071815490723,-2.5866923332214355,false
93251.46040012501,-0.4940038323402405,-0.49121618270874023,1.509785771369934,-0.353312611579895,-1.65151846408844,-3.0693368911743164,false
93251.470359125,-0.5692618489265442,-0.6608361005783081,1.494087815284729,-0.18424662947654724,-1.1765459775924683,-3.304985761642456,false
93251.480318125,-0.5175447463989258,-0.7766767740249634,1.4821866750717163,-0.21557864546775818,-0.9579326510429382,-3.378610610961914,false
93251.490277125,-0.47197461128234863,-0.8545920848846436,1.614737868309021,-0.661387026309967,-0.5565854907035828,-3.173618793487549,false
93251.500235125,-0.5064059495925903,-1.001523494720459,1.7843881845474243,-1.3833506107330322,0.08215929567813873,-2.6164276599884033,false
93251.510194125,-0.5445964932441711,-1.2211021184921265,1.8356586694717407,-1.6367216110229492,0.41382405161857605,-2.1994974613189697,false
93251.520153125,-0.5245369076728821,-1.5211520195007324,1.7048466205596924,-1.104996919631958,1.0023281574249268,-1.8700395822525024,false
93251.53011212501,-0.4241674542427063,-1.891456127166748,1.4841209650039673,-1.201741099357605,1.9611026048660278,-1.834802269935608,false
93251.54007112501,-0.286773145198822,-2.156108856201172,1.1589921712875366,-1.4099440574645996,3.040107011795044,-1.496002197265625,false
93251.550029125,-0.3882036805152893,-1.929185152053833,0.9288766384124756,-0.9277907013893127,3.5018017292022705,-0.8030503392219543,false
93251.55998812501,-0.4611174464225769,-1.514538288116455,0.7913525104522705,-0.33341893553733826,3.6768808364868164,-0.4119570851325989,false
93251.56994712501,-0.3737795948982239,-1.3268871307373047,0.692764401435852,0.20356515049934387,3.9315872192382812,-0.5308794975280762,false
93251.579906125,-0.19566881656646729,-1.211759090423584,0.5446884632110596,0.6313212513923645,4.0198445320129395,-0.7287803292274475,false
93251.58986412501,-0.03270387649536133,-1.1172479391098022,0.38900312781333923,1.1449151039123535,4.263709545135498,-0.6384389996528625,false
93251.59982312501,0.05400162935256958,-1.0948315858840942,0.29943788051605225,1.6389961242675781,5.199805736541748,-0.2889866232872009,false
93251.609782125,0.015310406684875488,-1.091184139251709,0.13664308190345764,1.629465937614441,6.128336429595947,0.647375762462616,false
93251.619741125,-0.1071678102016449,-0.9330043792724609,-0.013858914375305176,1.3711214065551758,5.818210601806641,1.6661875247955322,false
93251.629700125,-0.039472103118896484,-0.70722496509552,0.09364867210388184,0.9908730387687683,5.187279224395752,2.023480176925659,false
93251.639658125,0.4949500262737274,-0.4796982407569885,0.0077905356884002686,1.0952742099761963,4.455125331878662,1.6217522621154785,false
93251.649617125,1.183115839958191,-0.14863860607147217,-0.3532663881778717,1.8085765838623047,2.96321702003479,0.48620280623435974,false
93251.659576125,1.359079122543335,0.17671823501586914,-0.7853960990905762,2.736651659011841,1.6061910390853882,-0.23742268979549408,false
93251.66953512501,1.245980978012085,0.3664062023162842,-1.3253127336502075,4.349283218383789,2.4169907569885254,0.2633194923400879,false
93251.679493125,1.3478851318359375,0.5877856612205505,-1.7105576992034912,4.394793510437012,2.524632692337036,2.7262823581695557,false
93251.689452125,1.6843183040618896,1.1583389043807983,-2.3256540298461914,2.9102413654327393,0.5399055480957031,4.395460605621338,true
93251.69941112501,1.9139010906219482,1.746168851852417,-2.3802907466888428,1.0919338464736938,-0.36041221022605896,5.7570719718933105,false
93251.70937012501,2.358592987060547,1.5883495807647705,-1.9004629850387573,1.359409213066101,-0.8067193627357483,3.9874765872955322,false
93251.71932812501,2.3601627349853516,1.0677716732025146,-1.9755942821502686,-0.45058244466781616,-1.4155303239822388,3.0073792934417725,false
93251.72928712501,1.9882889986038208,0.627169668674469,-2.110159158706665,-1.4279247522354126,-3.254147529602051,2.4865522384643555,false
93251.73924612501,2.37949275970459,0.905604898929596,-1.5774595737457275,-2.05649733543396,-3.9463768005371094,1.4065115451812744,false
93251.749205125,2.11224365234375,1.0589908361434937,-1.2164344787597656,-2.2381701469421387,-4.0426130294799805,1.3921265602111816,false
93251.759164125,1.2889065742492676,1.359743356704712,-1.1416659355163574,-1.9093613624572754,-4.308462619781494,1.8671737909317017,false
93251.769122125,0.9016730189323425,1.7325549125671387,-0.8975645303726196,-2.447375774383545,-4.1603102684021,2.5607879161834717,false
93251.779081125,0.2903786897659302,1.5371384620666504,-0.7045260667800903,-3.2858705520629883,-3.985426902770996,2.3103394508361816,false
93251.789040125,-0.3325045704841614,1.358161449432373,-0.4682595729827881,-3.066549301147461,-4.210072994232178,1.3170225620269775,false
93251.798999125,-0.5703834891319275,1.003106713294983,0.02161335200071335,-2.67460560798645,-3.85154128074646,0.3040977716445923,false
93251.808957125,-0.6014769077301025,0.5504077076911926,0.33642637729644775,-2.4236764907836914,-3.741384983062744,-0.5852369070053101,false
93251.818916125,-0.6313605904579163,0.39378446340560913,0.6738859415054321,-2.2707417011260986,-4.194663047790527,-1.4339942932128906,false
93251.82887512501,-0.5639439821243286,0.3970690369606018,1.1063575744628906,-2.2449190616607666,-4.556938171386719,-2.1231191158294678,false
93251.83883412501,-0.4169005751609802,0.3594192862510681,1.5305002927780151,-2.084811210632324,-3.7661452293395996,-2.2323594093322754,false
93251.848792125,-0.2822418212890625,0.08282089233398438,1.5275278091430664,-1.514695405960083,-2.767273187637329,-2.314324378967285,false
93251.85875112501,-0.4103885889053345,-0.17229026556015015,1.3316007852554321,-1.1429671049118042,-1.2923126220703125,-2.0178425312042236,false
93251.86871012501,-0.645749568939209,-0.2939428687095642,1.1671102046966553,-0.7129288911819458,0.13959954679012299,-1.5230809450149536,false
93251.878669125,-0.7417082190513611,-0.37916266918182373,1.196733832359314,-0.7779620885848999,0.6568548083305359,-1.4959527254104614,false
93251.888628125,-0.7609073519706726,-0.5000832080841064,1.3092658519744873,-0.7452384829521179,0.8406782150268555,-1.7146825790405273,false
93251.89858612501,-0.7477476596832275,-0.68486088514328,1.5852434635162354,-1.1440558433532715,0.98079913854599,-2.0681028366088867,false
93251.908545125,-0.5845254063606262,-1.018157720565796,1.7283575534820557,-1.5664726495742798,1.1365163326263428,-2.2422077655792236,false
93251.918504125,-0.4665704369544983,-1.351278305053711,1.6157045364379883,-1.2290068864822388,0.8901470303535461,-2.037079334259033,false
93251.928463125,-0.37655723094940186,-1.62984037399292,1.4408223628997803,-1.0390777587890625,1.7186534404754639,-2.0417327880859375,false
93251.938421125,-0.24769353866577148,-1.733142614364624,1.1469892263412476,-0.9606529474258423,2.5169451236724854,-1.5567851066589355,false
93251.948380125,-0.523500919342041,-1.4759466648101807,0.9405592679977417,-0.40666699409484863,3.244893789291382,-0.7020575404167175,false
93251.958339125,-0.6228139400482178,-1.1454771757125854,0.9564719200134277,-0.8888805508613586,3.8090498447418213,-0.17682114243507385,false
93251.96829812501,-0.5521236658096313,-1.0135149955749512,0.8970949649810791,-0.4383120536804199,3.749328136444092,0.1664094626903534,false
93251.978256125,-0.43033677339553833,-0.9690927267074585,0.8868554830551147,0.23862959444522858,4.140580654144287,-0.3511194884777069,false
93251.988215125,-0.1306402087211609,-1.1241333484649658,0.5098531246185303,0.5854074954986572,4.895580768585205,-0.5413743853569031,false
93251.99817412501,-0.0908692479133606,-1.1814923286437988,0.18467524647712708,1.260532021522522,4.672538757324219,-0.3286454379558563,false
93252.00813312501,-0.1544817090034485,-0.9684208631515503,0.3276798129081726,2.0302422046661377,5.600431442260742,0.4947770833969116,false
93252.018092125,-0.014952540397644043,-0.8383211493492126,0.2492126226425171,1.891978144645691,5.276315689086914,0.03443742170929909,false
93252.02805012501,0.12142449617385864,-0.6433526873588562,-0.0567089319229126,1.9271029233932495,4.305217266082764,0.3889728784561157,false
93252.03800912501,0.1763554811477661,-0.3978811502456665,0.21621283888816833,2.2430241107940674,4.6008148193359375,0.7989645004272461,false
93252.047968125,1.0666005611419678,-0.2702856659889221,-0.18264004588127136,2.4763295650482178,3.1057417392730713,-0.2956077754497528,false
93252.057927125,1.4348224401474,0.05792170763015747,-0.5699678063392639,2.056424617767334,2.1918840408325195,-0.5395731925964355,false
93252.06788512501,1.2135179042816162,0.3183927536010742,-0.8728504180908203,2.390065908432007,1.837614893913269,0.9749851226806641,false
93252.077844125,1.7149839401245117,0.5601816773414612,-1.5416226387023926,3.3004655838012695,2.441791534423828,3.0313968658447266,false
93252.087803125,1.9372718334197998,0.9378135800361633,-1.9421762228012085,3.3949742317199707,1.3434998989105225,4.471182346343994,true
93252.097762125,1.5979666709899902,1.1824793815612793,-2.194019079208374,2.3142082691192627,0.04075053706765175,5.336058139801025,false
93252.107720125,1.7427520751953125,1.1573896408081055,-2.0545802116394043,1.8559625148773193,-1.270491361618042,3.9643945693969727,false
93252.117679125,2.3050758838653564,0.9597855806350708,-1.8272826671600342,-0.2684856951236725,-2.1354994773864746,3.0224344730377197,false
93252.127638125,2.451206684112549,0.6902764439582825,-1.68012535572052,-1.2720990180969238,-3.634899616241455,2.7714595794677734,false
93252.13759712501,2.572425365447998,0.6908705234527588,-1.216542363166809,-2.027570962905884,-4.18873929977417,1.5397509336471558,false
93252.14755612501,2.2532448768615723,0.6682819724082947,-0.9273631572723389,-2.782837390899658,-4.108659744262695,0.9207242727279663,false
93252.157514125,1.33506178855896,0.7782519459724426,-1.0086933374404907,-2.9387638568878174,-4.425434589385986,1.2434568405151367,false
93252.16747325001,0.9504374861717224,1.3047139644622803,-0.8208856582641602,-2.7827374935150146,-4.879441738128662,1.5905628204345703,false
93252.17743225,0.6243886947631836,1.4640684127807617,-0.47766411304473877,-2.181957960128784,-3.940831422805786,2.178934097290039,false
